%time,field.header.seq,field.header.stamp,field.header.frame_id,field.orientation.x,field.orientation.y,field.orientation.z,field.orientation.w,field.orientation_covariance0,field.orientation_covariance1,field.orientation_covariance2,field.orientation_covariance3,field.orientation_covariance4,field.orientation_covariance5,field.orientation_covariance6,field.orientation_covariance7,field.orientation_covariance8,field.angular_velocity.x,field.angular_velocity.y,field.angular_velocity.z,field.angular_velocity_covariance0,field.angular_velocity_covariance1,field.angular_velocity_covariance2,field.angular_velocity_covariance3,field.angular_velocity_covariance4,field.angular_velocity_covariance5,field.angular_velocity_covariance6,field.angular_velocity_covariance7,field.angular_velocity_covariance8,field.linear_acceleration.x,field.linear_acceleration.y,field.linear_acceleration.z,field.linear_acceleration_covariance0,field.linear_acceleration_covariance1,field.linear_acceleration_covariance2,field.linear_acceleration_covariance3,field.linear_acceleration_covariance4,field.linear_acceleration_covariance5,field.linear_acceleration_covariance6,field.linear_acceleration_covariance7,field.linear_acceleration_covariance8
1779692040952546602,419343,1779692040772283670,imu_link,-0.012766486965119839,-0.022612789645791054,0.11085512489080429,0.9934929013252258,0.0024999999441206455,0.0,0.0,0.0,0.0024999999441206455,0.0,0.0,0.0,0.0024999999441206455,0.0,0.0,0.0,0.019999999552965164,0.0,0.0,0.0,0.019999999552965164,0.0,0.0,0.0,0.019999999552965164,0.32680851221084595,-0.264559268951416,9.627683639526367,0.03999999910593033,0.0,0.0,0.0,0.03999999910593033,0.0,0.0,0.0,0.03999999910593033
1779692040952557248,419344,1779692040775283670,imu_link,-0.012568683363497257,-0.021957164630293846,0.1108609065413475,0.9935095906257629,0.0024999999441206455,0.0,0.0,0.0,0.0024999999441206455,0.0,0.0,0.0,0.0024999999441206455,0.0,0.0,0.0,0.019999999552965164,0.0,0.0,0.0,0.019999999552965164,0.0,0.0,0.0,0.019999999552965164,0.29867666959762573,-0.2472013235092163,9.643844604492188,0.03999999910593033,0.0,0.0,0.0,0.03999999910593033,0.0,0.0,0.0,0.03999999910593033
1779692040952561178,419345,1779692040780283670,imu_link,-0.012568683363497257,-0.021957164630293846,0.1108609065413475,0.9935095906257629,0.0024999999441206455,0.0,0.0,0.0,0.0024999999441206455,0.0,0.0,0.0,0.0024999999441206455,0.0,0.0,0.0,0.019999999552965164,0.0,0.0,0.0,0.019999999552965164,0.0,0.0,0.0,0.019999999552965164,0.29867666959762573,-0.2472013235092163,9.643844604492188,0.03999999910593033,0.0,0.0,0.0,0.03999999910593033,0.0,0.0,0.0,0.03999999910593033
1779692040952565163,419346,1779692040785283670,imu_link,-0.012280977331101894,-0.02127043902873993,0.11086525022983551,0.9935275912284851,0.0024999999441206455,0.0,0.0,0.0,0.0024999999441206455,0.0,0.0,0.0,0.0024999999441206455,0.0,0.0,0.0,0.019999999552965164,0.0,0.0,0.0,0.019999999552965164,0.0,0.0,0.0,0.019999999552965164,0.3124433159828186,-0.24241292476654053,9.625288963317871,0.03999999910593033,0.0,0.0,0.0,0.03999999910593033,0.0,0.0,0.0,0.03999999910593033
1779692040952570113,419347,1779692040790283670,imu_link,-0.011975690722465515,-0.020596427842974663,0.11086899787187576,0.9935450553894043,0.0024999999441206455,0.0,0.0,0.0,0.0024999999441206455,0.0,0.0,0.0,0.0024999999441206455,0.0,0.0,0.0,0.019999999552965164,0.0,0.0,0.0,0.019999999552965164,0.0,0.0,0.0,0.019999999552965164,0.29388824105262756,-0.22924481332302094,9.709684371948242,0.03999999910593033,0.0,0.0,0.0,0.03999999910593033,0.0,0.0,0.0,0.03999999910593033
1779692040952574721,419348,1779692040795283670,imu_link,-0.011975690722465515,-0.020596427842974663,0.11086899787187576,0.9935450553894043,0.0024999999441206455,0.0,0.0,0.0,0.0024999999441206455,0.0,0.0,0.0,0.0024999999441206455,0.0,0.0,0.0,0.019999999552965164,0.0,0.0,0.0,0.019999999552965164,0.0,0.0,0.0,0.019999999552965164,0.29388824105262756,-0.22924481332302094,9.709684371948242,0.03999999910593033,0.0,0.0,0.0,0.03999999910593033,0.0,0.0,0.0,0.03999999910593033
1779692040952578822,419349,1779692040800283670,imu_link,-0.011670402251183987,-0.019917964935302734,0.11087276041507721,0.9935621619224548,0.0024999999441206455,0.0,0.0,0.0,0.0024999999441206455,0.0,0.0,0.0,0.0024999999441206455,0.0,0.0,0.0,0.019999999552965164,0.0,0.0,0.0,0.019999999552965164,0.0,0.0,0.0,0.019999999552965164,0.32441431283950806,-0.2472013235092163,9.647435188293457,0.03999999910593033,0.0,0.0,0.0,0.03999999910593033,0.0,0.0,0.0,0.03999999910593033
1779692040952583701,419350,1779692040809283670,imu_link,-0.011823989450931549,-0.018753379583358765,0.11089160293340683,0.9935808181762695,0.0024999999441206455,0.0,0.0,0.0,0.0024999999441206455,0.0,0.0,0.0,0.0024999999441206455,0.0,0.0,0.0,0.019999999552965164,0.0,0.0,0.0,0.019999999552965164,0.0,0.0,0.0,0.019999999552965164,0.30286651849746704,-0.2669534981250763,9.621698379516602,0.03999999910593033,0.0,0.0,0.0,0.03999999910593033,0.0,0.0,0.0,0.03999999910593033
1779692040952585732,419351,1779692040874283670,imu_link,-0.006088702939450741,-0.01666855998337269,0.11081898957490921,0.9936778545379639,0.0024999999441206455,0.0,0.0,0.0,0.0024999999441206455,0.0,0.0,0.0,0.0024999999441206455,0.0,0.0,0.0,0.019999999552965164,0.0,0.0,0.0,0.019999999552965164,0.0,0.0,0.0,0.019999999552965164,0.3292027413845062,-0.24480712413787842,9.64923095703125,0.03999999910593033,0.0,0.0,0.0,0.03999999910593033,0.0,0.0,0.0,0.03999999910593033
1779692040952589892,419352,1779692040877283670,imu_link,-0.006774421315640211,-0.016672618687152863,0.11082983762025833,0.9936721324920654,0.0024999999441206455,0.0,0.0,0.0,0.0024999999441206455,0.0,0.0,0.0,0.0024999999441206455,0.0,0.0,0.0,0.019999999552965164,0.0,0.0,0.0,0.019999999552965164,0.0,0.0,0.0,0.019999999552965164,0.295683890581131,-0.24241292476654053,9.5995512008667,0.03999999910593033,0.0,0.0,0.0,0.03999999910593033,0.0,0.0,0.0,0.03999999910593033
1779692040952595019,419353,1779692040882283670,imu_link,-0.006774421315640211,-0.016672618687152863,0.11082983762025833,0.9936721324920654,0.0024999999441206455,0.0,0.0,0.0,0.0024999999441206455,0.0,0.0,0.0,0.0024999999441206455,0.0,0.0,0.0,0.019999999552965164,0.0,0.0,0.0,0.019999999552965164,0.0,0.0,0.0,0.019999999552965164,0.295683890581131,-0.24241292476654053,9.5995512008667,0.03999999910593033,0.0,0.0,0.0,0.03999999910593033,0.0,0.0,0.0,0.03999999910593033
1779692040952599806,419354,1779692040887283670,imu_link,-0.007513834163546562,-0.016770383343100548,0.11084066331386566,0.9936639070510864,0.0024999999441206455,0.0,0.0,0.0,0.0024999999441206455,0.0,0.0,0.0,0.0024999999441206455,0.0,0.0,0.0,0.019999999552965164,0.0,0.0,0.0,0.019999999552965164,0.0,0.0,0.0,0.019999999552965164,0.30705636739730835,-0.25079262256622314,9.645041465759277,0.03999999910593033,0.0,0.0,0.0,0.03999999910593033,0.0,0.0,0.0,0.03999999910593033
1779692040952612617,419355,1779692040892283670,imu_link,-0.008252942934632301,-0.01672334596514702,0.11085277795791626,0.9936574697494507,0.0024999999441206455,0.0,0.0,0.0,0.0024999999441206455,0.0,0.0,0.0,0.0024999999441206455,0.0,0.0,0.0,0.019999999552965164,0.0,0.0,0.0,0.019999999552965164,0.0,0.0,0.0,0.019999999552965164,0.2902969419956207,-0.26396071910858154,9.63067626953125,0.03999999910593033,0.0,0.0,0.0,0.03999999910593033,0.0,0.0,0.0,0.03999999910593033
1779692040952622404,419356,1779692040897283670,imu_link,-0.008252942934632301,-0.01672334596514702,0.11085277795791626,0.9936574697494507,0.0024999999441206455,0.0,0.0,0.0,0.0024999999441206455,0.0,0.0,0.0,0.0024999999441206455,0.0,0.0,0.0,0.019999999552965164,0.0,0.0,0.0,0.019999999552965164,0.0,0.0,0.0,0.019999999552965164,0.2902969419956207,-0.26396071910858154,9.63067626953125,0.03999999910593033,0.0,0.0,0.0,0.03999999910593033,0.0,0.0,0.0,0.03999999910593033
1779692040952634485,419357,1779692040902283670,imu_link,-0.008957860060036182,-0.0169637743383646,0.1108614131808281,0.9936464428901672,0.0024999999441206455,0.0,0.0,0.0,0.0024999999441206455,0.0,0.0,0.0,0.0024999999441206455,0.0,0.0,0.0,0.019999999552965164,0.0,0.0,0.0,0.019999999552965164,0.0,0.0,0.0,0.019999999552965164,0.31543606519699097,-0.25498247146606445,9.601945877075195,0.03999999910593033,0.0,0.0,0.0,0.03999999910593033,0.0,0.0,0.0,0.03999999910593033
1779692040964271355,419358,1779692040911283670,imu_link,-0.009932857006788254,-0.017606109380722046,0.1108698844909668,0.9936250448226929,0.0024999999441206455,0.0,0.0,0.0,0.0024999999441206455,0.0,0.0,0.0,0.0024999999441206455,0.0,0.0,0.0,0.019999999552965164,0.0,0.0,0.0,0.019999999552965164,0.0,0.0,0.0,0.019999999552965164,0.33698388934135437,-0.26755204796791077,9.66658878326416,0.03999999910593033,0.0,0.0,0.0,0.03999999910593033,0.0,0.0,0.0,0.03999999910593033
1779692040972369172,419359,1779692040916283670,imu_link,-0.009932857006788254,-0.017606109380722046,0.1108698844909668,0.9936250448226929,0.0024999999441206455,0.0,0.0,0.0,0.0024999999441206455,0.0,0.0,0.0,0.0024999999441206455,0.0,0.0,0.0,0.019999999552965164,0.0,0.0,0.0,0.019999999552965164,0.0,0.0,0.0,0.019999999552965164,0.33698388934135437,-0.26755204796791077,9.66658878326416,0.03999999910593033,0.0,0.0,0.0,0.03999999910593033,0.0,0.0,0.0,0.03999999910593033
1779692041001347619,419360,1779692040974283670,imu_link,-0.014249147847294807,-0.013563049957156181,0.11098653823137283,0.993622899055481,0.0024999999441206455,0.0,0.0,0.0,0.0024999999441206455,0.0,0.0,0.0,0.0024999999441206455,0.0,0.0,0.0,0.019999999552965164,0.0,0.0,0.0,0.019999999552965164,0.0,0.0,0.0,0.019999999552965164,0.2885012924671173,-0.2519897222518921,9.642646789550781,0.03999999910593033,0.0,0.0,0.0,0.03999999910593033,0.0,0.0,0.0,0.03999999910593033
1779692041008135051,419361,1779692040977283670,imu_link,-0.013817505910992622,-0.014097077772021294,0.11097300797700882,0.9936230182647705,0.0024999999441206455,0.0,0.0,0.0,0.0024999999441206455,0.0,0.0,0.0,0.0024999999441206455,0.0,0.0,0.0,0.019999999552965164,0.0,0.0,0.0,0.019999999552965164,0.0,0.0,0.0,0.019999999552965164,0.30885201692581177,-0.25019407272338867,9.610923767089844,0.03999999910593033,0.0,0.0,0.0,0.03999999910593033,0.0,0.0,0.0,0.03999999910593033
1779692041014160402,419362,1779692040982283670,imu_link,-0.013817505910992622,-0.014097077772021294,0.11097300797700882,0.9936230182647705,0.0024999999441206455,0.0,0.0,0.0,0.0024999999441206455,0.0,0.0,0.0,0.0024999999441206455,0.0,0.0,0.0,0.019999999552965164,0.0,0.0,0.0,0.019999999552965164,0.0,0.0,0.0,0.019999999552965164,0.30885201692581177,-0.25019407272338867,9.610923767089844,0.03999999910593033,0.0,0.0,0.0,0.03999999910593033,0.0,0.0,0.0,0.03999999910593033
1779692041019647657,419363,1779692040987283670,imu_link,-0.013346432708203793,-0.014675586484372616,0.11095824837684631,0.9936227202415466,0.0024999999441206455,0.0,0.0,0.0,0.0024999999441206455,0.0,0.0,0.0,0.0024999999441206455,0.0,0.0,0.0,0.019999999552965164,0.0,0.0,0.0,0.019999999552965164,0.0,0.0,0.0,0.019999999552965164,0.3076549172401428,-0.25019407272338867,9.601945877075195,0.03999999910593033,0.0,0.0,0.0,0.03999999910593033,0.0,0.0,0.0,0.03999999910593033
1779692041025454425,419364,1779692040992283670,imu_link,-0.01293479185551405,-0.015291385352611542,0.11094364523887634,0.9936205148696899,0.0024999999441206455,0.0,0.0,0.0,0.0024999999441206455,0.0,0.0,0.0,0.0024999999441206455,0.0,0.0,0.0,0.019999999552965164,0.0,0.0,0.0,0.019999999552965164,0.0,0.0,0.0,0.019999999552965164,0.31124621629714966,-0.2561795711517334,9.620500564575195,0.03999999910593033,0.0,0.0,0.0,0.03999999910593033,0.0,0.0,0.0,0.03999999910593033
1779692041032467649,419365,1779692040997283670,imu_link,-0.01293479185551405,-0.015291385352611542,0.11094364523887634,0.9936205148696899,0.0024999999441206455,0.0,0.0,0.0,0.0024999999441206455,0.0,0.0,0.0,0.0024999999441206455,0.0,0.0,0.0,0.019999999552965164,0.0,0.0,0.0,0.019999999552965164,0.0,0.0,0.0,0.019999999552965164,0.31124621629714966,-0.2561795711517334,9.620500564575195,0.03999999910593033,0.0,0.0,0.0,0.03999999910593033,0.0,0.0,0.0,0.03999999910593033
1779692041038339160,419366,1779692041002283670,imu_link,-0.01241798885166645,-0.01582803949713707,0.11092868447303772,0.9936203360557556,0.0024999999441206455,0.0,0.0,0.0,0.0024999999441206455,0.0,0.0,0.0,0.0024999999441206455,0.0,0.0,0.0,0.019999999552965164,0.0,0.0,0.0,0.019999999552965164,0.0,0.0,0.0,0.019999999552965164,0.31543606519699097,-0.24361002445220947,9.66539192199707,0.03999999910593033,0.0,0.0,0.0,0.03999999910593033,0.0,0.0,0.0,0.03999999910593033
1779692041064078084,419367,1779692041011283670,imu_link,-0.01200101338326931,-0.016926849260926247,0.11090712994337082,0.9936097860336304,0.0024999999441206455,0.0,0.0,0.0,0.0024999999441206455,0.0,0.0,0.0,0.0024999999441206455,0.0,0.0,0.0,0.019999999552965164,0.0,0.0,0.0,0.019999999552965164,0.0,0.0,0.0,0.019999999552965164,0.3124433159828186,-0.2627636194229126,9.637858390808105,0.03999999910593033,0.0,0.0,0.0,0.03999999910593033,0.0,0.0,0.0,0.03999999910593033
1779692041089357851,419368,1779692041069283670,imu_link,-0.0066377450712025166,-0.016281476244330406,0.11083132028579712,0.9936793446540833,0.0024999999441206455,0.0,0.0,0.0,0.0024999999441206455,0.0,0.0,0.0,0.0024999999441206455,0.0,0.0,0.0,0.019999999552965164,0.0,0.0,0.0,0.019999999552965164,0.0,0.0,0.0,0.019999999552965164,0.29867666959762573,-0.243011474609375,9.640851974487305,0.03999999910593033,0.0,0.0,0.0,0.03999999910593033,0.0,0.0,0.0,0.03999999910593033
1779692041100870983,419369,1779692041072283670,imu_link,-0.007315288297832012,-0.0163793433457613,0.11084094643592834,0.9936718940734863,0.0024999999441206455,0.0,0.0,0.0,0.0024999999441206455,0.0,0.0,0.0,0.0024999999441206455,0.0,0.0,0.0,0.019999999552965164,0.0,0.0,0.0,0.019999999552965164,0.0,0.0,0.0,0.019999999552965164,0.2998737692832947,-0.26994624733924866,9.588178634643555,0.03999999910593033,0.0,0.0,0.0,0.03999999910593033,0.0,0.0,0.0,0.03999999910593033
1779692041106552679,419370,1779692041077283670,imu_link,-0.007315288297832012,-0.0163793433457613,0.11084094643592834,0.9936718940734863,0.0024999999441206455,0.0,0.0,0.0,0.0024999999441206455,0.0,0.0,0.0,0.0024999999441206455,0.0,0.0,0.0,0.019999999552965164,0.0,0.0,0.0,0.019999999552965164,0.0,0.0,0.0,0.019999999552965164,0.2998737692832947,-0.26994624733924866,9.588178634643555,0.03999999910593033,0.0,0.0,0.0,0.03999999910593033,0.0,0.0,0.0,0.03999999910593033
1779692041112394700,419371,1779692041082283670,imu_link,-0.008059206418693066,-0.0163208469748497,0.11085295677185059,0.9936657547950745,0.0024999999441206455,0.0,0.0,0.0,0.0024999999441206455,0.0,0.0,0.0,0.0024999999441206455,0.0,0.0,0.0,0.019999999552965164,0.0,0.0,0.0,0.019999999552965164,0.0,0.0,0.0,0.019999999552965164,0.2867056429386139,-0.23523031175136566,9.635464668273926,0.03999999910593033,0.0,0.0,0.0,0.03999999910593033,0.0,0.0,0.0,0.03999999910593033
1779692041118238380,419372,1779692041087283670,imu_link,-0.008753237314522266,-0.016579892486333847,0.11086104065179825,0.9936547875404358,0.0024999999441206455,0.0,0.0,0.0,0.0024999999441206455,0.0,0.0,0.0,0.0024999999441206455,0.0,0.0,0.0,0.019999999552965164,0.0,0.0,0.0,0.019999999552965164,0.0,0.0,0.0,0.019999999552965164,0.30945056676864624,-0.25019407272338867,9.582193374633789,0.03999999910593033,0.0,0.0,0.0,0.03999999910593033,0.0,0.0,0.0,0.03999999910593033
1779692041124404328,419373,1779692041092283670,imu_link,-0.008753237314522266,-0.016579892486333847,0.11086104065179825,0.9936547875404358,0.0024999999441206455,0.0,0.0,0.0,0.0024999999441206455,0.0,0.0,0.0,0.0024999999441206455,0.0,0.0,0.0,0.019999999552965164,0.0,0.0,0.0,0.019999999552965164,0.0,0.0,0.0,0.019999999552965164,0.30945056676864624,-0.25019407272338867,9.582193374633789,0.03999999910593033,0.0,0.0,0.0,0.03999999910593033,0.0,0.0,0.0,0.03999999910593033
1779692041149396354,419374,1779692041103283670,imu_link,-0.00947541929781437,-0.0167529359459877,0.11087038367986679,0.9936442375183105,0.0024999999441206455,0.0,0.0,0.0,0.0024999999441206455,0.0,0.0,0.0,0.0024999999441206455,0.0,0.0,0.0,0.019999999552965164,0.0,0.0,0.0,0.019999999552965164,0.0,0.0,0.0,0.019999999552965164,0.3034650683403015,-0.24600422382354736,9.604339599609375,0.03999999910593033,0.0,0.0,0.0,0.03999999910593033,0.0,0.0,0.0,0.03999999910593033
1779692041156238970,419375,1779692041106283670,imu_link,-0.010494536720216274,-0.01731945388019085,0.1108798235654831,0.9936231970787048,0.0024999999441206455,0.0,0.0,0.0,0.0024999999441206455,0.0,0.0,0.0,0.0024999999441206455,0.0,0.0,0.0,0.019999999552965164,0.0,0.0,0.0,0.019999999552965164,0.0,0.0,0.0,0.019999999552965164,0.3148375153541565,-0.2513911724090576,9.627683639526367,0.03999999910593033,0.0,0.0,0.0,0.03999999910593033,0.0,0.0,0.0,0.03999999910593033
1779692041182777430,419376,1779692041163283670,imu_link,-0.008345316164195538,-0.012460172176361084,0.1109037771821022,0.9937135577201843,0.0024999999441206455,0.0,0.0,0.0,0.0024999999441206455,0.0,0.0,0.0,0.0024999999441206455,0.0,0.0,0.0,0.019999999552965164,0.0,0.0,0.0,0.019999999552965164,0.0,0.0,0.0,0.019999999552965164,0.29388824105262756,-0.22924481332302094,9.663596153259277,0.03999999910593033,0.0,0.0,0.0,0.03999999910593033,0.0,0.0,0.0,0.03999999910593033
1779692041185770460,419377,1779692041166283670,imu_link,-0.008559432812035084,-0.013110765255987644,0.11089993268251419,0.9937039613723755,0.0024999999441206455,0.0,0.0,0.0,0.0024999999441206455,0.0,0.0,0.0,0.0024999999441206455,0.0,0.0,0.0,0.019999999552965164,0.0,0.0,0.0,0.019999999552965164,0.0,0.0,0.0,0.019999999552965164,0.31184476613998413,-0.228047713637352,9.622895240783691,0.03999999910593033,0.0,0.0,0.0,0.03999999910593033,0.0,0.0,0.0,0.03999999910593033
1779692041191932147,419378,1779692041171283670,imu_link,-0.008559432812035084,-0.013110765255987644,0.11089993268251419,0.9937039613723755,0.0024999999441206455,0.0,0.0,0.0,0.0024999999441206455,0.0,0.0,0.0,0.0024999999441206455,0.0,0.0,0.0,0.019999999552965164,0.0,0.0,0.0,0.019999999552965164,0.0,0.0,0.0,0.019999999552965164,0.31184476613998413,-0.228047713637352,9.622895240783691,0.03999999910593033,0.0,0.0,0.0,0.03999999910593033,0.0,0.0,0.0,0.03999999910593033
1779692041197631239,419379,1779692041176283670,imu_link,-0.008846170268952847,-0.013798194006085396,0.1108965128660202,0.9936924576759338,0.0024999999441206455,0.0,0.0,0.0,0.0024999999441206455,0.0,0.0,0.0,0.0024999999441206455,0.0,0.0,0.0,0.019999999552965164,0.0,0.0,0.0,0.019999999552965164,0.0,0.0,0.0,0.019999999552965164,0.32441431283950806,-0.243011474609375,9.66958236694336,0.03999999910593033,0.0,0.0,0.0,0.03999999910593033,0.0,0.0,0.0,0.03999999910593033
1779692041203302028,419380,1779692041181283670,imu_link,-0.009216087870299816,-0.014439651742577553,0.11089456081390381,0.9936801791191101,0.0024999999441206455,0.0,0.0,0.0,0.0024999999441206455,0.0,0.0,0.0,0.0024999999441206455,0.0,0.0,0.0,0.019999999552965164,0.0,0.0,0.0,0.019999999552965164,0.0,0.0,0.0,0.019999999552965164,0.3208230137825012,-0.25438392162323,9.606135368347168,0.03999999910593033,0.0,0.0,0.0,0.03999999910593033,0.0,0.0,0.0,0.03999999910593033
1779692041209022974,419381,1779692041186283670,imu_link,-0.009216087870299816,-0.014439651742577553,0.11089456081390381,0.9936801791191101,0.0024999999441206455,0.0,0.0,0.0,0.0024999999441206455,0.0,0.0,0.0,0.0024999999441206455,0.0,0.0,0.0,0.019999999552965164,0.0,0.0,0.0,0.019999999552965164,0.0,0.0,0.0,0.019999999552965164,0.3208230137825012,-0.25438392162323,9.606135368347168,0.03999999910593033,0.0,0.0,0.0,0.03999999910593033,0.0,0.0,0.0,0.03999999910593033
1779692041233354274,419382,1779692041197283670,imu_link,-0.009733051992952824,-0.01497240923345089,0.11089569330215454,0.9936673045158386,0.0024999999441206455,0.0,0.0,0.0,0.0024999999441206455,0.0,0.0,0.0,0.0024999999441206455,0.0,0.0,0.0,0.019999999552965164,0.0,0.0,0.0,0.019999999552965164,0.0,0.0,0.0,0.019999999552965164,0.2974795699119568,-0.25677812099456787,9.619902610778809,0.03999999910593033,0.0,0.0,0.0,0.03999999910593033,0.0,0.0,0.0,0.03999999910593033
1779692041239528989,419383,1779692041200283670,imu_link,-0.01006924919784069,-0.016086559742689133,0.11088763177394867,0.9936473965644836,0.0024999999441206455,0.0,0.0,0.0,0.0024999999441206455,0.0,0.0,0.0,0.0024999999441206455,0.0,0.0,0.0,0.019999999552965164,0.0,0.0,0.0,0.019999999552965164,0.0,0.0,0.0,0.019999999552965164,0.31603461503982544,-0.23942016065120697,9.59177017211914,0.03999999910593033,0.0,0.0,0.0,0.03999999910593033,0.0,0.0,0.0,0.03999999910593033
1779692041264141786,419384,1779692041246283670,imu_link,-0.012805725447833538,-0.019296417012810707,0.1108894869685173,0.9935585856437683,0.0024999999441206455,0.0,0.0,0.0,0.0024999999441206455,0.0,0.0,0.0,0.0024999999441206455,0.0,0.0,0.0,0.019999999552965164,0.0,0.0,0.0,0.019999999552965164,0.0,0.0,0.0,0.019999999552965164,0.314238965511322,-0.25677812099456787,9.621099472045898,0.03999999910593033,0.0,0.0,0.0,0.03999999910593033,0.0,0.0,0.0,0.03999999910593033
1779692041270947822,419385,1779692041249283670,imu_link,-0.012241161428391933,-0.018907584249973297,0.11088520288467407,0.9935735464096069,0.0024999999441206455,0.0,0.0,0.0,0.0024999999441206455,0.0,0.0,0.0,0.0024999999441206455,0.0,0.0,0.0,0.019999999552965164,0.0,0.0,0.0,0.019999999552965164,0.0,0.0,0.0,0.019999999552965164,0.31603461503982544,-0.2364274114370346,9.663596153259277,0.03999999910593033,0.0,0.0,0.0,0.03999999910593033,0.0,0.0,0.0,0.03999999910593033
1779692041277148018,419386,1779692041254283670,imu_link,-0.012241161428391933,-0.018907584249973297,0.11088520288467407,0.9935735464096069,0.0024999999441206455,0.0,0.0,0.0,0.0024999999441206455,0.0,0.0,0.0,0.0024999999441206455,0.0,0.0,0.0,0.019999999552965164,0.0,0.0,0.0,0.019999999552965164,0.0,0.0,0.0,0.019999999552965164,0.31603461503982544,-0.2364274114370346,9.663596153259277,0.03999999910593033,0.0,0.0,0.0,0.03999999910593033,0.0,0.0,0.0,0.03999999910593033
1779692041282325749,419387,1779692041259283670,imu_link,-0.011667734012007713,-0.01843157969415188,0.1108819767832756,0.9935898184776306,0.0024999999441206455,0.0,0.0,0.0,0.0024999999441206455,0.0,0.0,0.0,0.0024999999441206455,0.0,0.0,0.0,0.019999999552965164,0.0,0.0,0.0,0.019999999552965164,0.0,0.0,0.0,0.019999999552965164,0.31364041566848755,-0.24001871049404144,9.665990829467773,0.03999999910593033,0.0,0.0,0.0,0.03999999910593033,0.0,0.0,0.0,0.03999999910593033
1779692041287606825,419388,1779692041264283670,imu_link,-0.011524967849254608,-0.0177056435495615,0.11088941991329193,0.9936038255691528,0.0024999999441206455,0.0,0.0,0.0,0.0024999999441206455,0.0,0.0,0.0,0.0024999999441206455,0.0,0.0,0.0,0.019999999552965164,0.0,0.0,0.0,0.019999999552965164,0.0,0.0,0.0,0.019999999552965164,0.2867056429386139,-0.24899697303771973,9.57979965209961,0.03999999910593033,0.0,0.0,0.0,0.03999999910593033,0.0,0.0,0.0,0.03999999910593033
1779692041293874065,419389,1779692041269283670,imu_link,-0.011524967849254608,-0.0177056435495615,0.11088941991329193,0.9936038255691528,0.0024999999441206455,0.0,0.0,0.0,0.0024999999441206455,0.0,0.0,0.0,0.0024999999441206455,0.0,0.0,0.0,0.019999999552965164,0.0,0.0,0.0,0.019999999552965164,0.0,0.0,0.0,0.019999999552965164,0.2867056429386139,-0.24899697303771973,9.57979965209961,0.03999999910593033,0.0,0.0,0.0,0.03999999910593033,0.0,0.0,0.0,0.03999999910593033
1779692041318403037,419390,1779692041280283670,imu_link,-0.01092266570776701,-0.018140075728297234,0.11087372899055481,0.9936046004295349,0.0024999999441206455,0.0,0.0,0.0,0.0024999999441206455,0.0,0.0,0.0,0.0024999999441206455,0.0,0.0,0.0,0.019999999552965164,0.0,0.0,0.0,0.019999999552965164,0.0,0.0,0.0,0.019999999552965164,0.3208230137825012,-0.2513911724090576,9.626486778259277,0.03999999910593033,0.0,0.0,0.0,0.03999999910593033,0.0,0.0,0.0,0.03999999910593033
1779692041324464486,419391,1779692041283283670,imu_link,-0.010024365969002247,-0.01888345740735531,0.11084896326065063,0.9936028718948364,0.0024999999441206455,0.0,0.0,0.0,0.0024999999441206455,0.0,0.0,0.0,0.0024999999441206455,0.0,0.0,0.0,0.019999999552965164,0.0,0.0,0.0,0.019999999552965164,0.0,0.0,0.0,0.019999999552965164,0.3321954905986786,-0.23822306096553802,9.596558570861816,0.03999999910593033,0.0,0.0,0.0,0.03999999910593033,0.0,0.0,0.0,0.03999999910593033
1779692041347618165,419392,1779692041331283670,imu_link,-0.01290072314441204,-0.015531537123024464,0.11093910783529282,0.9936177730560303,0.0024999999441206455,0.0,0.0,0.0,0.0024999999441206455,0.0,0.0,0.0,0.0024999999441206455,0.0,0.0,0.0,0.019999999552965164,0.0,0.0,0.0,0.019999999552965164,0.0,0.0,0.0,0.019999999552965164,0.29867666959762573,-0.25977087020874023,9.610923767089844,0.03999999910593033,0.0,0.0,0.0,0.03999999910593033,0.0,0.0,0.0,0.03999999910593033
1779692041354872187,419393,1779692041334283670,imu_link,-0.012248890474438667,-0.015742722898721695,0.11092687398195267,0.9936240315437317,0.0024999999441206455,0.0,0.0,0.0,0.0024999999441206455,0.0,0.0,0.0,0.0024999999441206455,0.0,0.0,0.0,0.019999999552965164,0.0,0.0,0.0,0.019999999552965164,0.0,0.0,0.0,0.019999999552965164,0.28969839215278625,-0.2346317619085312,9.610325813293457,0.03999999910593033,0.0,0.0,0.0,0.03999999910593033,0.0,0.0,0.0,0.03999999910593033
1779692041360365708,419394,1779692041339283670,imu_link,-0.012248890474438667,-0.015742722898721695,0.11092687398195267,0.9936240315437317,0.0024999999441206455,0.0,0.0,0.0,0.0024999999441206455,0.0,0.0,0.0,0.0024999999441206455,0.0,0.0,0.0,0.019999999552965164,0.0,0.0,0.0,0.019999999552965164,0.0,0.0,0.0,0.019999999552965164,0.28969839215278625,-0.2346317619085312,9.610325813293457,0.03999999910593033,0.0,0.0,0.0,0.03999999910593033,0.0,0.0,0.0,0.03999999910593033
1779692041366913985,419395,1779692041344283670,imu_link,-0.011762769892811775,-0.01630769483745098,0.110912024974823,0.9936224222183228,0.0024999999441206455,0.0,0.0,0.0,0.0024999999441206455,0.0,0.0,0.0,0.0024999999441206455,0.0,0.0,0.0,0.019999999552965164,0.0,0.0,0.0,0.019999999552965164,0.0,0.0,0.0,0.019999999552965164,0.304063618183136,-0.2495955228805542,9.650428771972656,0.03999999910593033,0.0,0.0,0.0,0.03999999910593033,0.0,0.0,0.0,0.03999999910593033
1779692041372698261,419396,1779692041349283670,imu_link,-0.011926605366170406,-0.01702924631536007,0.11090469360351562,0.9936091899871826,0.0024999999441206455,0.0,0.0,0.0,0.0024999999441206455,0.0,0.0,0.0,0.0024999999441206455,0.0,0.0,0.0,0.019999999552965164,0.0,0.0,0.0,0.019999999552965164,0.0,0.0,0.0,0.019999999552965164,0.30286651849746704,-0.26575639843940735,9.639056205749512,0.03999999910593033,0.0,0.0,0.0,0.03999999910593033,0.0,0.0,0.0,0.03999999910593033
1779692041379259184,419397,1779692041354283670,imu_link,-0.011926605366170406,-0.01702924631536007,0.11090469360351562,0.9936091899871826,0.0024999999441206455,0.0,0.0,0.0,0.0024999999441206455,0.0,0.0,0.0,0.0024999999441206455,0.0,0.0,0.0,0.019999999552965164,0.0,0.0,0.0,0.019999999552965164,0.0,0.0,0.0,0.019999999552965164,0.30286651849746704,-0.26575639843940735,9.639056205749512,0.03999999910593033,0.0,0.0,0.0,0.03999999910593033,0.0,0.0,0.0,0.03999999910593033
1779692041403390129,419398,1779692041365283670,imu_link,-0.01131116971373558,-0.01661653257906437,0.11090073734521866,0.9936238527297974,0.0024999999441206455,0.0,0.0,0.0,0.0024999999441206455,0.0,0.0,0.0,0.0024999999441206455,0.0,0.0,0.0,0.019999999552965164,0.0,0.0,0.0,0.019999999552965164,0.0,0.0,0.0,0.019999999552965164,0.2968810200691223,-0.25677812099456787,9.654019355773926,0.03999999910593033,0.0,0.0,0.0,0.03999999910593033,0.0,0.0,0.0,0.03999999910593033
1779692041409595475,419399,1779692041368283670,imu_link,-0.010457344353199005,-0.01741064339876175,0.11087723821401596,0.9936222434043884,0.0024999999441206455,0.0,0.0,0.0,0.0024999999441206455,0.0,0.0,0.0,0.0024999999441206455,0.0,0.0,0.0,0.019999999552965164,0.0,0.0,0.0,0.019999999552965164,0.0,0.0,0.0,0.019999999552965164,0.32441431283950806,-0.22685061395168304,9.645041465759277,0.03999999910593033,0.0,0.0,0.0,0.03999999910593033,0.0,0.0,0.0,0.03999999910593033
1779692041434060158,419400,1779692041413283670,imu_link,-0.013154599815607071,-0.020518727600574493,0.11088154464960098,0.9935304522514343,0.0024999999441206455,0.0,0.0,0.0,0.0024999999441206455,0.0,0.0,0.0,0.0024999999441206455,0.0,0.0,0.0,0.019999999552965164,0.0,0.0,0.0,0.019999999552965164,0.0,0.0,0.0,0.019999999552965164,0.31543606519699097,-0.24241292476654053,9.607931137084961,0.03999999910593033,0.0,0.0,0.0,0.03999999910593033,0.0,0.0,0.0,0.03999999910593033
1779692041440215541,419401,1779692041416283670,imu_link,-0.012977966107428074,-0.01985504850745201,0.11088835448026657,0.9935454726219177,0.0024999999441206455,0.0,0.0,0.0,0.0024999999441206455,0.0,0.0,0.0,0.0024999999441206455,0.0,0.0,0.0,0.019999999552965164,0.0,0.0,0.0,0.019999999552965164,0.0,0.0,0.0,0.019999999552965164,0.29448679089546204,-0.26755204796791077,9.57560920715332,0.03999999910593033,0.0,0.0,0.0,0.03999999910593033,0.0,0.0,0.0,0.03999999910593033
1779692041446168719,419402,1779692041421283670,imu_link,-0.012977966107428074,-0.01985504850745201,0.11088835448026657,0.9935454726219177,0.0024999999441206455,0.0,0.0,0.0,0.0024999999441206455,0.0,0.0,0.0,0.0024999999441206455,0.0,0.0,0.0,0.019999999552965164,0.0,0.0,0.0,0.019999999552965164,0.0,0.0,0.0,0.019999999552965164,0.29448679089546204,-0.26755204796791077,9.57560920715332,0.03999999910593033,0.0,0.0,0.0,0.03999999910593033,0.0,0.0,0.0,0.03999999910593033
1779692041452088691,419403,1779692041426283670,imu_link,-0.012607637792825699,-0.01920885592699051,0.11089131981134415,0.993562638759613,0.0024999999441206455,0.0,0.0,0.0,0.0024999999441206455,0.0,0.0,0.0,0.0024999999441206455,0.0,0.0,0.0,0.019999999552965164,0.0,0.0,0.0,0.019999999552965164,0.0,0.0,0.0,0.019999999552965164,0.3082534670829773,-0.2585737705230713,9.617507934570312,0.03999999910593033,0.0,0.0,0.0,0.03999999910593033,0.0,0.0,0.0,0.03999999910593033
1779692041457586633,419404,1779692041431283670,imu_link,-0.01243640761822462,-0.018488790839910507,0.11089880764484406,0.9935775399208069,0.0024999999441206455,0.0,0.0,0.0,0.0024999999441206455,0.0,0.0,0.0,0.0024999999441206455,0.0,0.0,0.0,0.019999999552965164,0.0,0.0,0.0,0.019999999552965164,0.0,0.0,0.0,0.019999999552965164,0.30286651849746704,-0.2687491476535797,9.622296333312988,0.03999999910593033,0.0,0.0,0.0,0.03999999910593033,0.0,0.0,0.0,0.03999999910593033
1779692041464545147,419405,1779692041436283670,imu_link,-0.01243640761822462,-0.018488790839910507,0.11089880764484406,0.9935775399208069,0.0024999999441206455,0.0,0.0,0.0,0.0024999999441206455,0.0,0.0,0.0,0.0024999999441206455,0.0,0.0,0.0,0.019999999552965164,0.0,0.0,0.0,0.019999999552965164,0.0,0.0,0.0,0.019999999552965164,0.30286651849746704,-0.2687491476535797,9.622296333312988,0.03999999910593033,0.0,0.0,0.0,0.03999999910593033,0.0,0.0,0.0,0.03999999910593033
1779692041490316833,419406,1779692041447283670,imu_link,-0.011766516603529453,-0.018169499933719635,0.11089199781417847,0.993592381477356,0.0024999999441206455,0.0,0.0,0.0,0.0024999999441206455,0.0,0.0,0.0,0.0024999999441206455,0.0,0.0,0.0,0.019999999552965164,0.0,0.0,0.0,0.019999999552965164,0.0,0.0,0.0,0.019999999552965164,0.3166331648826599,-0.24420857429504395,9.659406661987305,0.03999999910593033,0.0,0.0,0.0,0.03999999910593033,0.0,0.0,0.0,0.03999999910593033
1779692041496510831,419407,1779692041450283670,imu_link,-0.011975406669080257,-0.01702135056257248,0.11091116815805435,0.9936080574989319,0.0024999999441206455,0.0,0.0,0.0,0.0024999999441206455,0.0,0.0,0.0,0.0024999999441206455,0.0,0.0,0.0,0.019999999552965164,0.0,0.0,0.0,0.019999999552965164,0.0,0.0,0.0,0.019999999552965164,0.29628247022628784,-0.2651578485965729,9.600150108337402,0.03999999910593033,0.0,0.0,0.0,0.03999999910593033,0.0,0.0,0.0,0.03999999910593033
1779692041520762189,419408,1779692041497283670,imu_link,-0.00834190659224987,-0.01934552937746048,0.110821433365345,0.9936127066612244,0.0024999999441206455,0.0,0.0,0.0,0.0024999999441206455,0.0,0.0,0.0,0.0024999999441206455,0.0,0.0,0.0,0.019999999552965164,0.0,0.0,0.0,0.019999999552965164,0.0,0.0,0.0,0.019999999552965164,0.3208230137825012,-0.2412158101797104,9.640253067016602,0.03999999910593033,0.0,0.0,0.0,0.03999999910593033,0.0,0.0,0.0,0.03999999910593033
1779692041527854813,419409,1779692041500283670,imu_link,-0.008885018527507782,-0.01892235316336155,0.11083576083183289,0.9936144948005676,0.0024999999441206455,0.0,0.0,0.0,0.0024999999441206455,0.0,0.0,0.0,0.0024999999441206455,0.0,0.0,0.0,0.019999999552965164,0.0,0.0,0.0,0.019999999552965164,0.0,0.0,0.0,0.019999999552965164,0.3100491166114807,-0.24480712413787842,9.62947940826416,0.03999999910593033,0.0,0.0,0.0,0.03999999910593033,0.0,0.0,0.0,0.03999999910593033
1779692041533845052,419410,1779692041505283670,imu_link,-0.008885018527507782,-0.01892235316336155,0.11083576083183289,0.9936144948005676,0.0024999999441206455,0.0,0.0,0.0,0.0024999999441206455,0.0,0.0,0.0,0.0024999999441206455,0.0,0.0,0.0,0.019999999552965164,0.0,0.0,0.0,0.019999999552965164,0.0,0.0,0.0,0.019999999552965164,0.3100491166114807,-0.24480712413787842,9.62947940826416,0.03999999910593033,0.0,0.0,0.0,0.03999999910593033,0.0,0.0,0.0,0.03999999910593033
1779692041539368189,419411,1779692041510283670,imu_link,-0.009450865909457207,-0.018436066806316376,0.11085113883018494,0.9936167001724243,0.0024999999441206455,0.0,0.0,0.0,0.0024999999441206455,0.0,0.0,0.0,0.0024999999441206455,0.0,0.0,0.0,0.019999999552965164,0.0,0.0,0.0,0.019999999552965164,0.0,0.0,0.0,0.019999999552965164,0.30226796865463257,-0.25079262256622314,9.663596153259277,0.03999999910593033,0.0,0.0,0.0,0.03999999910593033,0.0,0.0,0.0,0.03999999910593033
1779692041545628032,419412,1779692041515283670,imu_link,-0.010170362889766693,-0.01825759746134281,0.11086558550596237,0.9936113357543945,0.0024999999441206455,0.0,0.0,0.0,0.0024999999441206455,0.0,0.0,0.0,0.0024999999441206455,0.0,0.0,0.0,0.019999999552965164,0.0,0.0,0.0,0.019999999552965164,0.0,0.0,0.0,0.019999999552965164,0.314238965511322,-0.27054479718208313,9.626486778259277,0.03999999910593033,0.0,0.0,0.0,0.03999999910593033,0.0,0.0,0.0,0.03999999910593033
1779692041551586918,419413,1779692041520283670,imu_link,-0.010170362889766693,-0.01825759746134281,0.11086558550596237,0.9936113357543945,0.0024999999441206455,0.0,0.0,0.0,0.0024999999441206455,0.0,0.0,0.0,0.0024999999441206455,0.0,0.0,0.0,0.019999999552965164,0.0,0.0,0.0,0.019999999552965164,0.0,0.0,0.0,0.019999999552965164,0.314238965511322,-0.27054479718208313,9.626486778259277,0.03999999910593033,0.0,0.0,0.0,0.03999999910593033,0.0,0.0,0.0,0.03999999910593033
1779692041556885216,419414,1779692041525283670,imu_link,-0.010566559620201588,-0.017629161477088928,0.11087991297245026,0.9936168789863586,0.0024999999441206455,0.0,0.0,0.0,0.0024999999441206455,0.0,0.0,0.0,0.0024999999441206455,0.0,0.0,0.0,0.019999999552965164,0.0,0.0,0.0,0.019999999552965164,0.0,0.0,0.0,0.019999999552965164,0.29209259152412415,-0.2513911724090576,9.634865760803223,0.03999999910593033,0.0,0.0,0.0,0.03999999910593033,0.0,0.0,0.0,0.03999999910593033
1779692041582295862,419415,1779692041534283670,imu_link,-0.009483466856181622,-0.017197927460074425,0.11086751520633698,0.9936368465423584,0.0024999999441206455,0.0,0.0,0.0,0.0024999999441206455,0.0,0.0,0.0,0.0024999999441206455,0.0,0.0,0.0,0.019999999552965164,0.0,0.0,0.0,0.019999999552965164,0.0,0.0,0.0,0.019999999552965164,0.31364041566848755,-0.2364274114370346,9.61331844329834,0.03999999910593033,0.0,0.0,0.0,0.03999999910593033,0.0,0.0,0.0,0.03999999910593033
1779692041611766852,419416,1779692041585283670,imu_link,-0.014083721674978733,-0.018211670219898224,0.11092859506607056,0.9935573935508728,0.0024999999441206455,0.0,0.0,0.0,0.0024999999441206455,0.0,0.0,0.0,0.0024999999441206455,0.0,0.0,0.0,0.019999999552965164,0.0,0.0,0.0,0.019999999552965164,0.0,0.0,0.0,0.019999999552965164,0.3124433159828186,-0.24660277366638184,9.640851974487305,0.03999999910593033,0.0,0.0,0.0,0.03999999910593033,0.0,0.0,0.0,0.03999999910593033
1779692041617832639,419417,1779692041588283670,imu_link,-0.013539392501115799,-0.01779324747622013,0.11092626303434372,0.9935727715492249,0.0024999999441206455,0.0,0.0,0.0,0.0024999999441206455,0.0,0.0,0.0,0.0024999999441206455,0.0,0.0,0.0,0.019999999552965164,0.0,0.0,0.0,0.019999999552965164,0.0,0.0,0.0,0.019999999552965164,0.28969839215278625,-0.2609679698944092,9.621099472045898,0.03999999910593033,0.0,0.0,0.0,0.03999999910593033,0.0,0.0,0.0,0.03999999910593033
1779692041623481676,419418,1779692041593283670,imu_link,-0.013539392501115799,-0.01779324747622013,0.11092626303434372,0.9935727715492249,0.0024999999441206455,0.0,0.0,0.0,0.0024999999441206455,0.0,0.0,0.0,0.0024999999441206455,0.0,0.0,0.0,0.019999999552965164,0.0,0.0,0.0,0.019999999552965164,0.0,0.0,0.0,0.019999999552965164,0.28969839215278625,-0.2609679698944092,9.621099472045898,0.03999999910593033,0.0,0.0,0.0,0.03999999910593033,0.0,0.0,0.0,0.03999999910593033
1779692041629416434,419419,1779692041598283670,imu_link,-0.012795853428542614,-0.017741892486810684,0.11091499030590057,0.9935848116874695,0.0024999999441206455,0.0,0.0,0.0,0.0024999999441206455,0.0,0.0,0.0,0.0024999999441206455,0.0,0.0,0.0,0.019999999552965164,0.0,0.0,0.0,0.019999999552965164,0.0,0.0,0.0,0.019999999552965164,0.3124433159828186,-0.2627636194229126,9.603741645812988,0.03999999910593033,0.0,0.0,0.0,0.03999999910593033,0.0,0.0,0.0,0.03999999910593033
1779692041635187743,419420,1779692041603283670,imu_link,-0.012151002883911133,-0.017378149554133415,0.1109098419547081,0.9935998916625977,0.0024999999441206455,0.0,0.0,0.0,0.0024999999441206455,0.0,0.0,0.0,0.0024999999441206455,0.0,0.0,0.0,0.019999999552965164,0.0,0.0,0.0,0.019999999552965164,0.0,0.0,0.0,0.019999999552965164,0.29628247022628784,-0.24241292476654053,9.685742378234863,0.03999999910593033,0.0,0.0,0.0,0.03999999910593033,0.0,0.0,0.0,0.03999999910593033
1779692041641650445,419421,1779692041608283670,imu_link,-0.012151002883911133,-0.017378149554133415,0.1109098419547081,0.9935998916625977,0.0024999999441206455,0.0,0.0,0.0,0.0024999999441206455,0.0,0.0,0.0,0.0024999999441206455,0.0,0.0,0.0,0.019999999552965164,0.0,0.0,0.0,0.019999999552965164,0.0,0.0,0.0,0.019999999552965164,0.29628247022628784,-0.24241292476654053,9.685742378234863,0.03999999910593033,0.0,0.0,0.0,0.03999999910593033,0.0,0.0,0.0,0.03999999910593033
1779692041647941940,419422,1779692041613283670,imu_link,-0.011422284878790379,-0.017237292602658272,0.11090019345283508,0.9936121702194214,0.0024999999441206455,0.0,0.0,0.0,0.0024999999441206455,0.0,0.0,0.0,0.0024999999441206455,0.0,0.0,0.0,0.019999999552965164,0.0,0.0,0.0,0.019999999552965164,0.0,0.0,0.0,0.019999999552965164,0.304063618183136,-0.2412158101797104,9.612719535827637,0.03999999910593033,0.0,0.0,0.0,0.03999999910593033,0.0,0.0,0.0,0.03999999910593033
1779692041673365215,419423,1779692041622283670,imu_link,-0.010583286173641682,-0.016424747183918953,0.11089757084846497,0.9936354160308838,0.0024999999441206455,0.0,0.0,0.0,0.0024999999441206455,0.0,0.0,0.0,0.0024999999441206455,0.0,0.0,0.0,0.019999999552965164,0.0,0.0,0.0,0.019999999552965164,0.0,0.0,0.0,0.019999999552965164,0.29209259152412415,-0.23822306096553802,9.613916397094727,0.03999999910593033,0.0,0.0,0.0,0.03999999910593033,0.0,0.0,0.0,0.03999999910593033
1779692041698554223,419424,1779692041686887763,imu_link,-0.011906698346138,-0.02166781947016716,0.11085129529237747,0.9935252070426941,0.0024999999441206455,0.0,0.0,0.0,0.0024999999441206455,0.0,0.0,0.0,0.0024999999441206455,0.0,0.0,0.0,0.019999999552965164,0.0,0.0,0.0,0.019999999552965164,0.0,0.0,0.0,0.019999999552965164,0.333991140127182,-0.25318682193756104,9.601945877075195,0.03999999910593033,0.0,0.0,0.0,0.03999999910593033,0.0,0.0,0.0,0.03999999910593033
1779692041702723970,419425,1779692041689887763,imu_link,-0.01175302267074585,-0.02099674753844738,0.11085770279169083,0.9935406446456909,0.0024999999441206455,0.0,0.0,0.0,0.0024999999441206455,0.0,0.0,0.0,0.0024999999441206455,0.0,0.0,0.0,0.019999999552965164,0.0,0.0,0.0,0.019999999552965164,0.0,0.0,0.0,0.019999999552965164,0.3148375153541565,-0.24839842319488525,9.640253067016602,0.03999999910593033,0.0,0.0,0.0,0.03999999910593033,0.0,0.0,0.0,0.03999999910593033
1779692041708823702,419426,1779692041694887763,imu_link,-0.01175302267074585,-0.02099674753844738,0.11085770279169083,0.9935406446456909,0.0024999999441206455,0.0,0.0,0.0,0.0024999999441206455,0.0,0.0,0.0,0.0024999999441206455,0.0,0.0,0.0,0.019999999552965164,0.0,0.0,0.0,0.019999999552965164,0.0,0.0,0.0,0.019999999552965164,0.3148375153541565,-0.24839842319488525,9.640253067016602,0.03999999910593033,0.0,0.0,0.0,0.03999999910593033,0.0,0.0,0.0,0.03999999910593033
1779692041714977644,419427,1779692041699887763,imu_link,-0.011748281307518482,-0.020252011716365814,0.11086801439523697,0.9935550093650818,0.0024999999441206455,0.0,0.0,0.0,0.0024999999441206455,0.0,0.0,0.0,0.0024999999441206455,0.0,0.0,0.0,0.019999999552965164,0.0,0.0,0.0,0.019999999552965164,0.0,0.0,0.0,0.019999999552965164,0.2890998423099518,-0.2603694200515747,9.662399291992188,0.03999999910593033,0.0,0.0,0.0,0.03999999910593033,0.0,0.0,0.0,0.03999999910593033
1779692041721051003,419428,1779692041704887763,imu_link,-0.011650323867797852,-0.019518589600920677,0.11087635159492493,0.9935699105262756,0.0024999999441206455,0.0,0.0,0.0,0.0024999999441206455,0.0,0.0,0.0,0.0024999999441206455,0.0,0.0,0.0,0.019999999552965164,0.0,0.0,0.0,0.019999999552965164,0.0,0.0,0.0,0.019999999552965164,0.3232172131538391,-0.2585737705230713,9.635464668273926,0.03999999910593033,0.0,0.0,0.0,0.03999999910593033,0.0,0.0,0.0,0.03999999910593033
1779692041726294917,419429,1779692041709887763,imu_link,-0.011650323867797852,-0.019518589600920677,0.11087635159492493,0.9935699105262756,0.0024999999441206455,0.0,0.0,0.0,0.0024999999441206455,0.0,0.0,0.0,0.0024999999441206455,0.0,0.0,0.0,0.019999999552965164,0.0,0.0,0.0,0.019999999552965164,0.0,0.0,0.0,0.019999999552965164,0.3232172131538391,-0.2585737705230713,9.635464668273926,0.03999999910593033,0.0,0.0,0.0,0.03999999910593033,0.0,0.0,0.0,0.03999999910593033
1779692041733663443,419430,1779692041714887763,imu_link,-0.011275333352386951,-0.018877999857068062,0.11087832599878311,0.9935863018035889,0.0024999999441206455,0.0,0.0,0.0,0.0024999999441206455,0.0,0.0,0.0,0.0024999999441206455,0.0,0.0,0.0,0.019999999552965164,0.0,0.0,0.0,0.019999999552965164,0.0,0.0,0.0,0.019999999552965164,0.3148375153541565,-0.23942016065120697,9.61331844329834,0.03999999910593033,0.0,0.0,0.0,0.03999999910593033,0.0,0.0,0.0,0.03999999910593033
1779692041758448832,419431,1779692041723887763,imu_link,-0.011763510294258595,-0.017816809937357903,0.11090093106031418,0.9935978055000305,0.0024999999441206455,0.0,0.0,0.0,0.0024999999441206455,0.0,0.0,0.0,0.0024999999441206455,0.0,0.0,0.0,0.019999999552965164,0.0,0.0,0.0,0.019999999552965164,0.0,0.0,0.0,0.019999999552965164,0.29448679089546204,-0.2711433470249176,9.645041465759277,0.03999999910593033,0.0,0.0,0.0,0.03999999910593033,0.0,0.0,0.0,0.03999999910593033
1779692041764421103,419432,1779692041728887763,imu_link,-0.011763510294258595,-0.017816809937357903,0.11090093106031418,0.9935978055000305,0.0024999999441206455,0.0,0.0,0.0,0.0024999999441206455,0.0,0.0,0.0,0.0024999999441206455,0.0,0.0,0.0,0.019999999552965164,0.0,0.0,0.0,0.019999999552965164,0.0,0.0,0.0,0.019999999552965164,0.29448679089546204,-0.2711433470249176,9.645041465759277,0.03999999910593033,0.0,0.0,0.0,0.03999999910593033,0.0,0.0,0.0,0.03999999910593033
1779692041788522737,419433,1779692041775887763,imu_link,-0.008204958401620388,-0.014582088217139244,0.11088547855615616,0.9936880469322205,0.0024999999441206455,0.0,0.0,0.0,0.0024999999441206455,0.0,0.0,0.0,0.0024999999441206455,0.0,0.0,0.0,0.019999999552965164,0.0,0.0,0.0,0.019999999552965164,0.0,0.0,0.0,0.019999999552965164,0.30226796865463257,-0.24361002445220947,9.667786598205566,0.03999999910593033,0.0,0.0,0.0,0.03999999910593033,0.0,0.0,0.0,0.03999999910593033
1779692041794186437,419434,1779692041778887763,imu_link,-0.008614500053226948,-0.015131931751966476,0.11088564246892929,0.9936763048171997,0.0024999999441206455,0.0,0.0,0.0,0.0024999999441206455,0.0,0.0,0.0,0.0024999999441206455,0.0,0.0,0.0,0.019999999552965164,0.0,0.0,0.0,0.019999999552965164,0.0,0.0,0.0,0.019999999552965164,0.33099839091300964,-0.25318682193756104,9.59715747833252,0.03999999910593033,0.0,0.0,0.0,0.03999999910593033,0.0,0.0,0.0,0.03999999910593033
1779692041800202904,419435,1779692041783887763,imu_link,-0.008614500053226948,-0.015131931751966476,0.11088564246892929,0.9936763048171997,0.0024999999441206455,0.0,0.0,0.0,0.0024999999441206455,0.0,0.0,0.0,0.0024999999441206455,0.0,0.0,0.0,0.019999999552965164,0.0,0.0,0.0,0.019999999552965164,0.0,0.0,0.0,0.019999999552965164,0.33099839091300964,-0.25318682193756104,9.59715747833252,0.03999999910593033,0.0,0.0,0.0,0.03999999910593033,0.0,0.0,0.0,0.03999999910593033
1779692041805892263,419436,1779692041788887763,imu_link,-0.009255611337721348,-0.015511645004153252,0.11089074611663818,0.993664026260376,0.0024999999441206455,0.0,0.0,0.0,0.0024999999441206455,0.0,0.0,0.0,0.0024999999441206455,0.0,0.0,0.0,0.019999999552965164,0.0,0.0,0.0,0.019999999552965164,0.0,0.0,0.0,0.019999999552965164,0.3016694188117981,-0.26396071910858154,9.642048835754395,0.03999999910593033,0.0,0.0,0.0,0.03999999910593033,0.0,0.0,0.0,0.03999999910593033
1779692041811589857,419437,1779692041793887763,imu_link,-0.009734120219945908,-0.01607295125722885,0.11089147627353668,0.993650496006012,0.0024999999441206455,0.0,0.0,0.0,0.0024999999441206455,0.0,0.0,0.0,0.0024999999441206455,0.0,0.0,0.0,0.019999999552965164,0.0,0.0,0.0,0.019999999552965164,0.0,0.0,0.0,0.019999999552965164,0.325611412525177,-0.26156651973724365,9.66658878326416,0.03999999910593033,0.0,0.0,0.0,0.03999999910593033,0.0,0.0,0.0,0.03999999910593033
1779692041817517237,419438,1779692041798887763,imu_link,-0.009734120219945908,-0.01607295125722885,0.11089147627353668,0.993650496006012,0.0024999999441206455,0.0,0.0,0.0,0.0024999999441206455,0.0,0.0,0.0,0.0024999999441206455,0.0,0.0,0.0,0.019999999552965164,0.0,0.0,0.0,0.019999999552965164,0.0,0.0,0.0,0.019999999552965164,0.325611412525177,-0.26156651973724365,9.66658878326416,0.03999999910593033,0.0,0.0,0.0,0.03999999910593033,0.0,0.0,0.0,0.03999999910593033
1779692041841678371,419439,1779692041809887763,imu_link,-0.009864827618002892,-0.016805874183773994,0.11088500171899796,0.9936378598213196,0.0024999999441206455,0.0,0.0,0.0,0.0024999999441206455,0.0,0.0,0.0,0.0024999999441206455,0.0,0.0,0.0,0.019999999552965164,0.0,0.0,0.0,0.019999999552965164,0.0,0.0,0.0,0.019999999552965164,0.3292027413845062,-0.23343466222286224,9.642048835754395,0.03999999910593033,0.0,0.0,0.0,0.03999999910593033,0.0,0.0,0.0,0.03999999910593033
1779692041849236697,419440,1779692041812887763,imu_link,-0.01016467995941639,-0.017932957038283348,0.11087645590305328,0.9936161041259766,0.0024999999441206455,0.0,0.0,0.0,0.0024999999441206455,0.0,0.0,0.0,0.0024999999441206455,0.0,0.0,0.0,0.019999999552965164,0.0,0.0,0.0,0.019999999552965164,0.0,0.0,0.0,0.019999999552965164,0.314238965511322,-0.2298433631658554,9.607931137084961,0.03999999910593033,0.0,0.0,0.0,0.03999999910593033,0.0,0.0,0.0,0.03999999910593033
1779692041872643211,419441,1779692041861887763,imu_link,-0.014066650532186031,-0.015658842399716377,0.1109679788351059,0.9935967326164246,0.0024999999441206455,0.0,0.0,0.0,0.0024999999441206455,0.0,0.0,0.0,0.0024999999441206455,0.0,0.0,0.0,0.019999999552965164,0.0,0.0,0.0,0.019999999552965164,0.0,0.0,0.0,0.019999999552965164,0.30226796865463257,-0.25917232036590576,9.628880500793457,0.03999999910593033,0.0,0.0,0.0,0.03999999910593033,0.0,0.0,0.0,0.03999999910593033
1779692041878867925,419442,1779692041864887763,imu_link,-0.01343644130975008,-0.015928536653518677,0.1109548881649971,0.9936026334762573,0.0024999999441206455,0.0,0.0,0.0,0.0024999999441206455,0.0,0.0,0.0,0.0024999999441206455,0.0,0.0,0.0,0.019999999552965164,0.0,0.0,0.0,0.019999999552965164,0.0,0.0,0.0,0.019999999552965164,0.2974795699119568,-0.2585737705230713,9.685144424438477,0.03999999910593033,0.0,0.0,0.0,0.03999999910593033,0.0,0.0,0.0,0.03999999910593033
1779692041886491257,419443,1779692041869887763,imu_link,-0.01343644130975008,-0.015928536653518677,0.1109548881649971,0.9936026334762573,0.0024999999441206455,0.0,0.0,0.0,0.0024999999441206455,0.0,0.0,0.0,0.0024999999441206455,0.0,0.0,0.0,0.019999999552965164,0.0,0.0,0.0,0.019999999552965164,0.0,0.0,0.0,0.019999999552965164,0.2974795699119568,-0.2585737705230713,9.685144424438477,0.03999999910593033,0.0,0.0,0.0,0.03999999910593033,0.0,0.0,0.0,0.03999999910593033
1779692041890799949,419444,1779692041874887763,imu_link,-0.012854976579546928,-0.016394823789596558,0.11093946546316147,0.9936044216156006,0.0024999999441206455,0.0,0.0,0.0,0.0024999999441206455,0.0,0.0,0.0,0.0024999999441206455,0.0,0.0,0.0,0.019999999552965164,0.0,0.0,0.0,0.019999999552965164,0.0,0.0,0.0,0.019999999552965164,0.3292027413845062,-0.23762451112270355,9.610923767089844,0.03999999910593033,0.0,0.0,0.0,0.03999999910593033,0.0,0.0,0.0,0.03999999910593033
1779692041896658449,419445,1779692041879887763,imu_link,-0.012208894826471806,-0.016753215342760086,0.11092458665370941,0.9936082363128662,0.0024999999441206455,0.0,0.0,0.0,0.0024999999441206455,0.0,0.0,0.0,0.0024999999441206455,0.0,0.0,0.0,0.019999999552965164,0.0,0.0,0.0,0.019999999552965164,0.0,0.0,0.0,0.019999999552965164,0.314238965511322,-0.24660277366638184,9.691129684448242,0.03999999910593033,0.0,0.0,0.0,0.03999999910593033,0.0,0.0,0.0,0.03999999910593033
1779692041902873687,419446,1779692041886887763,imu_link,-0.011715859174728394,-0.017300888895988464,0.1109093576669693,0.9936065673828125,0.0024999999441206455,0.0,0.0,0.0,0.0024999999441206455,0.0,0.0,0.0,0.0024999999441206455,0.0,0.0,0.0,0.019999999552965164,0.0,0.0,0.0,0.019999999552965164,0.0,0.0,0.0,0.019999999552965164,0.31783026456832886,-0.25019407272338867,9.570820808410645,0.03999999910593033,0.0,0.0,0.0,0.03999999910593033,0.0,0.0,0.0,0.03999999910593033
1779692041928185179,419447,1779692041895887763,imu_link,-0.011715859174728394,-0.017300888895988464,0.1109093576669693,0.9936065673828125,0.0024999999441206455,0.0,0.0,0.0,0.0024999999441206455,0.0,0.0,0.0,0.0024999999441206455,0.0,0.0,0.0,0.019999999552965164,0.0,0.0,0.0,0.019999999552965164,0.0,0.0,0.0,0.019999999552965164,0.31783026456832886,-0.25019407272338867,9.570820808410645,0.03999999910593033,0.0,0.0,0.0,0.03999999910593033,0.0,0.0,0.0,0.03999999910593033
1779692041934852174,419448,1779692041898887763,imu_link,-0.011338923126459122,-0.01619774103164673,0.11091825366020203,0.9936284422874451,0.0024999999441206455,0.0,0.0,0.0,0.0024999999441206455,0.0,0.0,0.0,0.0024999999441206455,0.0,0.0,0.0,0.019999999552965164,0.0,0.0,0.0,0.019999999552965164,0.0,0.0,0.0,0.019999999552965164,0.27234044671058655,-0.24600422382354736,9.68274974822998,0.03999999910593033,0.0,0.0,0.0,0.03999999910593033,0.0,0.0,0.0,0.03999999910593033
1779692041959037771,419449,1779692041946887763,imu_link,-0.010033011436462402,-0.0204237662255764,0.11084256321191788,0.9935731291770935,0.0024999999441206455,0.0,0.0,0.0,0.0024999999441206455,0.0,0.0,0.0,0.0024999999441206455,0.0,0.0,0.0,0.019999999552965164,0.0,0.0,0.0,0.019999999552965164,0.0,0.0,0.0,0.019999999552965164,0.32860419154167175,-0.24480712413787842,9.66539192199707,0.03999999910593033,0.0,0.0,0.0,0.03999999910593033,0.0,0.0,0.0,0.03999999910593033
1779692041966182298,419450,1779692041949887763,imu_link,-0.01034002285450697,-0.019812339916825294,0.11085591465234756,0.9935808777809143,0.0024999999441206455,0.0,0.0,0.0,0.0024999999441206455,0.0,0.0,0.0,0.0024999999441206455,0.0,0.0,0.0,0.019999999552965164,0.0,0.0,0.0,0.019999999552965164,0.0,0.0,0.0,0.019999999552965164,0.30885201692581177,-0.25737667083740234,9.604938507080078,0.03999999910593033,0.0,0.0,0.0,0.03999999910593033,0.0,0.0,0.0,0.03999999910593033
1779692041971744018,419451,1779692041954887763,imu_link,-0.01034002285450697,-0.019812339916825294,0.11085591465234756,0.9935808777809143,0.0024999999441206455,0.0,0.0,0.0,0.0024999999441206455,0.0,0.0,0.0,0.0024999999441206455,0.0,0.0,0.0,0.019999999552965164,0.0,0.0,0.0,0.019999999552965164,0.0,0.0,0.0,0.019999999552965164,0.30885201692581177,-0.25737667083740234,9.604938507080078,0.03999999910593033,0.0,0.0,0.0,0.03999999910593033,0.0,0.0,0.0,0.03999999910593033
1779692041977295315,419452,1779692041959887763,imu_link,-0.010720018297433853,-0.019170930609107018,0.11087093502283096,0.9935877323150635,0.0024999999441206455,0.0,0.0,0.0,0.0024999999441206455,0.0,0.0,0.0,0.0024999999441206455,0.0,0.0,0.0,0.019999999552965164,0.0,0.0,0.0,0.019999999552965164,0.0,0.0,0.0,0.019999999552965164,0.29867666959762573,-0.26755204796791077,9.646238327026367,0.03999999910593033,0.0,0.0,0.0,0.03999999910593033,0.0,0.0,0.0,0.03999999910593033
1779692041983118187,419453,1779692041964887763,imu_link,-0.010643742978572845,-0.018435226753354073,0.11087894439697266,0.9936015605926514,0.0024999999441206455,0.0,0.0,0.0,0.0024999999441206455,0.0,0.0,0.0,0.0024999999441206455,0.0,0.0,0.0,0.019999999552965164,0.0,0.0,0.0,0.019999999552965164,0.0,0.0,0.0,0.019999999552965164,0.3064578175544739,-0.23822306096553802,9.639056205749512,0.03999999910593033,0.0,0.0,0.0,0.03999999910593033,0.0,0.0,0.0,0.03999999910593033
1779692041989404404,419454,1779692041969887763,imu_link,-0.010643742978572845,-0.018435226753354073,0.11087894439697266,0.9936015605926514,0.0024999999441206455,0.0,0.0,0.0,0.0024999999441206455,0.0,0.0,0.0,0.0024999999441206455,0.0,0.0,0.0,0.019999999552965164,0.0,0.0,0.0,0.019999999552965164,0.0,0.0,0.0,0.019999999552965164,0.3064578175544739,-0.23822306096553802,9.639056205749512,0.03999999910593033,0.0,0.0,0.0,0.03999999910593033,0.0,0.0,0.0,0.03999999910593033
1779692042014511313,419455,1779692041980887763,imu_link,-0.010637016035616398,-0.01769580878317356,0.11088814586400986,0.9936140775680542,0.0024999999441206455,0.0,0.0,0.0,0.0024999999441206455,0.0,0.0,0.0,0.0024999999441206455,0.0,0.0,0.0,0.019999999552965164,0.0,0.0,0.0,0.019999999552965164,0.0,0.0,0.0,0.019999999552965164,0.30945056676864624,-0.24061726033687592,9.624092102050781,0.03999999910593033,0.0,0.0,0.0,0.03999999910593033,0.0,0.0,0.0,0.03999999910593033
1779692042020528488,419456,1779692041983887763,imu_link,-0.011391491629183292,-0.018579445779323578,0.11088936775922775,0.9935894012451172,0.0024999999441206455,0.0,0.0,0.0,0.0024999999441206455,0.0,0.0,0.0,0.0024999999441206455,0.0,0.0,0.0,0.019999999552965164,0.0,0.0,0.0,0.019999999552965164,0.0,0.0,0.0,0.019999999552965164,0.333991140127182,-0.2603694200515747,9.647435188293457,0.03999999910593033,0.0,0.0,0.0,0.03999999910593033,0.0,0.0,0.0,0.03999999910593033
1779692042044231138,419457,1779692042029887763,imu_link,-0.01214256789535284,-0.014424430206418037,0.11095692217350006,0.9936419725418091,0.0024999999441206455,0.0,0.0,0.0,0.0024999999441206455,0.0,0.0,0.0,0.0024999999441206455,0.0,0.0,0.0,0.019999999552965164,0.0,0.0,0.0,0.019999999552965164,0.0,0.0,0.0,0.019999999552965164,0.32022446393966675,-0.25737667083740234,9.585186004638672,0.03999999910593033,0.0,0.0,0.0,0.03999999910593033,0.0,0.0,0.0,0.03999999910593033
1779692042050887502,419458,1779692042032887763,imu_link,-0.01192676741629839,-0.015073533169925213,0.11094523966312408,0.9936363697052002,0.0024999999441206455,0.0,0.0,0.0,0.0024999999441206455,0.0,0.0,0.0,0.0024999999441206455,0.0,0.0,0.0,0.019999999552965164,0.0,0.0,0.0,0.019999999552965164,0.0,0.0,0.0,0.019999999552965164,0.3172317147254944,-0.2495955228805542,9.643245697021484,0.03999999910593033,0.0,0.0,0.0,0.03999999910593033,0.0,0.0,0.0,0.03999999910593033
1779692042056270422,419459,1779692042037887763,imu_link,-0.01192676741629839,-0.015073533169925213,0.11094523966312408,0.9936363697052002,0.0024999999441206455,0.0,0.0,0.0,0.0024999999441206455,0.0,0.0,0.0,0.0024999999441206455,0.0,0.0,0.0,0.019999999552965164,0.0,0.0,0.0,0.019999999552965164,0.0,0.0,0.0,0.019999999552965164,0.3172317147254944,-0.2495955228805542,9.643245697021484,0.03999999910593033,0.0,0.0,0.0,0.03999999910593033,0.0,0.0,0.0,0.03999999910593033
1779692042061918494,419460,1779692042042887763,imu_link,-0.011659153737127781,-0.015769563615322113,0.1109321266412735,0.9936301708221436,0.0024999999441206455,0.0,0.0,0.0,0.0024999999441206455,0.0,0.0,0.0,0.0024999999441206455,0.0,0.0,0.0,0.019999999552965164,0.0,0.0,0.0,0.019999999552965164,0.0,0.0,0.0,0.019999999552965164,0.30466216802597046,-0.2513911724090576,9.676165580749512,0.03999999910593033,0.0,0.0,0.0,0.03999999910593033,0.0,0.0,0.0,0.03999999910593033
1779692042068060038,419461,1779692042047887763,imu_link,-0.011459171772003174,-0.01648029126226902,0.11091973632574081,0.9936223030090332,0.0024999999441206455,0.0,0.0,0.0,0.0024999999441206455,0.0,0.0,0.0,0.0024999999441206455,0.0,0.0,0.0,0.019999999552965164,0.0,0.0,0.0,0.019999999552965164,0.0,0.0,0.0,0.019999999552965164,0.3280056416988373,-0.24899697303771973,9.640851974487305,0.03999999910593033,0.0,0.0,0.0,0.03999999910593033,0.0,0.0,0.0,0.03999999910593033
1779692042073851442,419462,1779692042054887763,imu_link,-0.011061904951930046,-0.01710052415728569,0.11090550571680069,0.9936178922653198,0.0024999999441206455,0.0,0.0,0.0,0.0024999999441206455,0.0,0.0,0.0,0.0024999999441206455,0.0,0.0,0.0,0.019999999552965164,0.0,0.0,0.0,0.019999999552965164,0.0,0.0,0.0,0.019999999552965164,0.3100491166114807,-0.24600422382354736,9.645041465759277,0.03999999910593033,0.0,0.0,0.0,0.03999999910593033,0.0,0.0,0.0,0.03999999910593033
1779692042100417254,419463,1779692042063887763,imu_link,-0.011061904951930046,-0.01710052415728569,0.11090550571680069,0.9936178922653198,0.0024999999441206455,0.0,0.0,0.0,0.0024999999441206455,0.0,0.0,0.0,0.0024999999441206455,0.0,0.0,0.0,0.019999999552965164,0.0,0.0,0.0,0.019999999552965164,0.0,0.0,0.0,0.019999999552965164,0.3100491166114807,-0.24600422382354736,9.645041465759277,0.03999999910593033,0.0,0.0,0.0,0.03999999910593033,0.0,0.0,0.0,0.03999999910593033
1779692042105763040,419464,1779692042066887763,imu_link,-0.010240178555250168,-0.017933377996087074,0.1108817383646965,0.993614673614502,0.0024999999441206455,0.0,0.0,0.0,0.0024999999441206455,0.0,0.0,0.0,0.0024999999441206455,0.0,0.0,0.0,0.019999999552965164,0.0,0.0,0.0,0.019999999552965164,0.0,0.0,0.0,0.019999999552965164,0.30885201692581177,-0.24660277366638184,9.671377182006836,0.03999999910593033,0.0,0.0,0.0,0.03999999910593033,0.0,0.0,0.0,0.03999999910593033
1779692042131713398,419465,1779692042114887763,imu_link,-0.011500469408929348,-0.013693833723664284,0.11095327883958817,0.9936603307723999,0.0024999999441206455,0.0,0.0,0.0,0.0024999999441206455,0.0,0.0,0.0,0.0024999999441206455,0.0,0.0,0.0,0.019999999552965164,0.0,0.0,0.0,0.019999999552965164,0.0,0.0,0.0,0.019999999552965164,0.28730419278144836,-0.24181437492370605,9.66958236694336,0.03999999910593033,0.0,0.0,0.0,0.03999999910593033,0.0,0.0,0.0,0.03999999910593033
1779692042141298398,419466,1779692042117887763,imu_link,-0.011499349027872086,-0.014376651495695114,0.11094440519809723,0.9936517477035522,0.0024999999441206455,0.0,0.0,0.0,0.0024999999441206455,0.0,0.0,0.0,0.0024999999441206455,0.0,0.0,0.0,0.019999999552965164,0.0,0.0,0.0,0.019999999552965164,0.0,0.0,0.0,0.019999999552965164,0.3292027413845062,-0.2603694200515747,9.662399291992188,0.03999999910593033,0.0,0.0,0.0,0.03999999910593033,0.0,0.0,0.0,0.03999999910593033
1779692042146691889,419467,1779692042122887763,imu_link,-0.011499349027872086,-0.014376651495695114,0.11094440519809723,0.9936517477035522,0.0024999999441206455,0.0,0.0,0.0,0.0024999999441206455,0.0,0.0,0.0,0.0024999999441206455,0.0,0.0,0.0,0.019999999552965164,0.0,0.0,0.0,0.019999999552965164,0.0,0.0,0.0,0.019999999552965164,0.3292027413845062,-0.2603694200515747,9.662399291992188,0.03999999910593033,0.0,0.0,0.0,0.03999999910593033,0.0,0.0,0.0,0.03999999910593033
1779692042152501698,419468,1779692042127887763,imu_link,-0.011391646228730679,-0.015111422166228294,0.11093341559171677,0.9936434030532837,0.0024999999441206455,0.0,0.0,0.0,0.0024999999441206455,0.0,0.0,0.0,0.0024999999441206455,0.0,0.0,0.0,0.019999999552965164,0.0,0.0,0.0,0.019999999552965164,0.0,0.0,0.0,0.019999999552965164,0.30885201692581177,-0.25079262256622314,9.697114944458008,0.03999999910593033,0.0,0.0,0.0,0.03999999910593033,0.0,0.0,0.0,0.03999999910593033
1779692042158389785,419469,1779692042132887763,imu_link,-0.011304985731840134,-0.015841469168663025,0.11092270165681839,0.9936342239379883,0.0024999999441206455,0.0,0.0,0.0,0.0024999999441206455,0.0,0.0,0.0,0.0024999999441206455,0.0,0.0,0.0,0.019999999552965164,0.0,0.0,0.0,0.019999999552965164,0.0,0.0,0.0,0.019999999552965164,0.32441431283950806,-0.25019407272338867,9.634267807006836,0.03999999910593033,0.0,0.0,0.0,0.03999999910593033,0.0,0.0,0.0,0.03999999910593033
1779692042165041315,419470,1779692042139887763,imu_link,-0.010633871890604496,-0.01614929363131523,0.11090893298387527,0.9936380386352539,0.0024999999441206455,0.0,0.0,0.0,0.0024999999441206455,0.0,0.0,0.0,0.0024999999441206455,0.0,0.0,0.0,0.019999999552965164,0.0,0.0,0.0,0.019999999552965164,0.0,0.0,0.0,0.019999999552965164,0.3034650683403015,-0.21009118854999542,9.63067626953125,0.03999999910593033,0.0,0.0,0.0,0.03999999910593033,0.0,0.0,0.0,0.03999999910593033
1779692042188569717,419471,1779692042148887763,imu_link,-0.010633871890604496,-0.01614929363131523,0.11090893298387527,0.9936380386352539,0.0024999999441206455,0.0,0.0,0.0,0.0024999999441206455,0.0,0.0,0.0,0.0024999999441206455,0.0,0.0,0.0,0.019999999552965164,0.0,0.0,0.0,0.019999999552965164,0.0,0.0,0.0,0.019999999552965164,0.3034650683403015,-0.21009118854999542,9.63067626953125,0.03999999910593033,0.0,0.0,0.0,0.03999999910593033,0.0,0.0,0.0,0.03999999910593033
1779692042214104672,419472,1779692042203887763,imu_link,-0.014894208870828152,-0.020362354815006256,0.11091824620962143,0.99350506067276,0.0024999999441206455,0.0,0.0,0.0,0.0024999999441206455,0.0,0.0,0.0,0.0024999999441206455,0.0,0.0,0.0,0.019999999552965164,0.0,0.0,0.0,0.019999999552965164,0.0,0.0,0.0,0.019999999552965164,0.3082534670829773,-0.26575639843940735,9.620500564575195,0.03999999910593033,0.0,0.0,0.0,0.03999999910593033,0.0,0.0,0.0,0.03999999910593033
1779692042219834748,419473,1779692042206887763,imu_link,-0.01435545738786459,-0.019944490864872932,0.11091533303260803,0.9935216903686523,0.0024999999441206455,0.0,0.0,0.0,0.0024999999441206455,0.0,0.0,0.0,0.0024999999441206455,0.0,0.0,0.0,0.019999999552965164,0.0,0.0,0.0,0.019999999552965164,0.0,0.0,0.0,0.019999999552965164,0.3208230137825012,-0.2663549482822418,9.679757118225098,0.03999999910593033,0.0,0.0,0.0,0.03999999910593033,0.0,0.0,0.0,0.03999999910593033
1779692042226085551,419474,1779692042211887763,imu_link,-0.01435545738786459,-0.019944490864872932,0.11091533303260803,0.9935216903686523,0.0024999999441206455,0.0,0.0,0.0,0.0024999999441206455,0.0,0.0,0.0,0.0024999999441206455,0.0,0.0,0.0,0.019999999552965164,0.0,0.0,0.0,0.019999999552965164,0.0,0.0,0.0,0.019999999552965164,0.3208230137825012,-0.2663549482822418,9.679757118225098,0.03999999910593033,0.0,0.0,0.0,0.03999999910593033,0.0,0.0,0.0,0.03999999910593033
1779692042231474120,419475,1779692042216887763,imu_link,-0.013871358707547188,-0.019383719190955162,0.11091572046279907,0.9935396313667297,0.0024999999441206455,0.0,0.0,0.0,0.0024999999441206455,0.0,0.0,0.0,0.0024999999441206455,0.0,0.0,0.0,0.019999999552965164,0.0,0.0,0.0,0.019999999552965164,0.0,0.0,0.0,0.019999999552965164,0.29448679089546204,-0.2561795711517334,9.64803409576416,0.03999999910593033,0.0,0.0,0.0,0.03999999910593033,0.0,0.0,0.0,0.03999999910593033
1779692042237422180,419476,1779692042221887763,imu_link,-0.013312838040292263,-0.018903428688645363,0.11091344803571701,0.993556797504425,0.0024999999441206455,0.0,0.0,0.0,0.0024999999441206455,0.0,0.0,0.0,0.0024999999441206455,0.0,0.0,0.0,0.019999999552965164,0.0,0.0,0.0,0.019999999552965164,0.0,0.0,0.0,0.019999999552965164,0.30945056676864624,-0.2603694200515747,9.612719535827637,0.03999999910593033,0.0,0.0,0.0,0.03999999910593033,0.0,0.0,0.0,0.03999999910593033
1779692042243131787,419477,1779692042228887763,imu_link,-0.012732435949146748,-0.01844872161746025,0.1109103336930275,0.9935731887817383,0.0024999999441206455,0.0,0.0,0.0,0.0024999999441206455,0.0,0.0,0.0,0.0024999999441206455,0.0,0.0,0.0,0.019999999552965164,0.0,0.0,0.0,0.019999999552965164,0.0,0.0,0.0,0.019999999552965164,0.3172317147254944,-0.2687491476535797,9.635464668273926,0.03999999910593033,0.0,0.0,0.0,0.03999999910593033,0.0,0.0,0.0,0.03999999910593033
1779692042267939912,419478,1779692042237887763,imu_link,-0.012732435949146748,-0.01844872161746025,0.1109103336930275,0.9935731887817383,0.0024999999441206455,0.0,0.0,0.0,0.0024999999441206455,0.0,0.0,0.0,0.0024999999441206455,0.0,0.0,0.0,0.019999999552965164,0.0,0.0,0.0,0.019999999552965164,0.0,0.0,0.0,0.019999999552965164,0.3172317147254944,-0.2687491476535797,9.635464668273926,0.03999999910593033,0.0,0.0,0.0,0.03999999910593033,0.0,0.0,0.0,0.03999999910593033
1779692042274209931,419479,1779692042240887763,imu_link,-0.01190760638564825,-0.01761479675769806,0.11090856045484543,0.9935987591743469,0.0024999999441206455,0.0,0.0,0.0,0.0024999999441206455,0.0,0.0,0.0,0.0024999999441206455,0.0,0.0,0.0,0.019999999552965164,0.0,0.0,0.0,0.019999999552965164,0.0,0.0,0.0,0.019999999552965164,0.2950853407382965,-0.24480712413787842,9.637260437011719,0.03999999910593033,0.0,0.0,0.0,0.03999999910593033,0.0,0.0,0.0,0.03999999910593033
1779692042297842536,419480,1779692042288887763,imu_link,-0.011825546622276306,-0.022034456953406334,0.11084521561861038,0.9935187697410583,0.0024999999441206455,0.0,0.0,0.0,0.0024999999441206455,0.0,0.0,0.0,0.0024999999441206455,0.0,0.0,0.0,0.019999999552965164,0.0,0.0,0.0,0.019999999552965164,0.0,0.0,0.0,0.019999999552965164,0.31603461503982544,-0.26575639843940735,9.615114212036133,0.03999999910593033,0.0,0.0,0.0,0.03999999910593033,0.0,0.0,0.0,0.03999999910593033
1779692042304374741,419481,1779692042291887763,imu_link,-0.01209193468093872,-0.02140471525490284,0.11085961759090424,0.9935277104377747,0.0024999999441206455,0.0,0.0,0.0,0.0024999999441206455,0.0,0.0,0.0,0.0024999999441206455,0.0,0.0,0.0,0.019999999552965164,0.0,0.0,0.0,0.019999999552965164,0.0,0.0,0.0,0.019999999552965164,0.32022446393966675,-0.2968810200691223,9.641449928283691,0.03999999910593033,0.0,0.0,0.0,0.03999999910593033,0.0,0.0,0.0,0.03999999910593033
1779692042310073246,419482,1779692042296887763,imu_link,-0.01209193468093872,-0.02140471525490284,0.11085961759090424,0.9935277104377747,0.0024999999441206455,0.0,0.0,0.0,0.0024999999441206455,0.0,0.0,0.0,0.0024999999441206455,0.0,0.0,0.0,0.019999999552965164,0.0,0.0,0.0,0.019999999552965164,0.0,0.0,0.0,0.019999999552965164,0.32022446393966675,-0.2968810200691223,9.641449928283691,0.03999999910593033,0.0,0.0,0.0,0.03999999910593033,0.0,0.0,0.0,0.03999999910593033
1779692042316013513,419483,1779692042301887763,imu_link,-0.011899973265826702,-0.02068924903869629,0.11086605489253998,0.9935443997383118,0.0024999999441206455,0.0,0.0,0.0,0.0024999999441206455,0.0,0.0,0.0,0.0024999999441206455,0.0,0.0,0.0,0.019999999552965164,0.0,0.0,0.0,0.019999999552965164,0.0,0.0,0.0,0.019999999552965164,0.32261866331100464,-0.2537853717803955,9.668983459472656,0.03999999910593033,0.0,0.0,0.0,0.03999999910593033,0.0,0.0,0.0,0.03999999910593033
1779692042320953680,419484,1779692042306887763,imu_link,-0.011615346185863018,-0.02000986784696579,0.11087015271186829,0.9935612678527832,0.0024999999441206455,0.0,0.0,0.0,0.0024999999441206455,0.0,0.0,0.0,0.0024999999441206455,0.0,0.0,0.0,0.019999999552965164,0.0,0.0,0.0,0.019999999552965164,0.0,0.0,0.0,0.019999999552965164,0.3238157629966736,-0.24600422382354736,9.633668899536133,0.03999999910593033,0.0,0.0,0.0,0.03999999910593033,0.0,0.0,0.0,0.03999999910593033
1779692042327151790,419485,1779692042313887763,imu_link,-0.011566410772502422,-0.019273797050118446,0.11087934672832489,0.9935753345489502,0.0024999999441206455,0.0,0.0,0.0,0.0024999999441206455,0.0,0.0,0.0,0.0024999999441206455,0.0,0.0,0.0,0.019999999552965164,0.0,0.0,0.0,0.019999999552965164,0.0,0.0,0.0,0.019999999552965164,0.29807811975479126,-0.25498247146606445,9.657011985778809,0.03999999910593033,0.0,0.0,0.0,0.03999999910593033,0.0,0.0,0.0,0.03999999910593033
1779692042352321653,419486,1779692042322887763,imu_link,-0.011566410772502422,-0.019273797050118446,0.11087934672832489,0.9935753345489502,0.0024999999441206455,0.0,0.0,0.0,0.0024999999441206455,0.0,0.0,0.0,0.0024999999441206455,0.0,0.0,0.0,0.019999999552965164,0.0,0.0,0.0,0.019999999552965164,0.0,0.0,0.0,0.019999999552965164,0.29807811975479126,-0.25498247146606445,9.657011985778809,0.03999999910593033,0.0,0.0,0.0,0.03999999910593033,0.0,0.0,0.0,0.03999999910593033
1779692042359065892,419487,1779692042325887763,imu_link,-0.0114552341401577,-0.018106169998645782,0.11089319735765457,0.9935969710350037,0.0024999999441206455,0.0,0.0,0.0,0.0024999999441206455,0.0,0.0,0.0,0.0024999999441206455,0.0,0.0,0.0,0.019999999552965164,0.0,0.0,0.0,0.019999999552965164,0.0,0.0,0.0,0.019999999552965164,0.3238157629966736,-0.25917232036590576,9.667187690734863,0.03999999910593033,0.0,0.0,0.0,0.03999999910593033,0.0,0.0,0.0,0.03999999910593033
1779692042383033758,419488,1779692042372887763,imu_link,-0.009631682187318802,-0.014190414920449257,0.11091411858797073,0.9936776757240295,0.0024999999441206455,0.0,0.0,0.0,0.0024999999441206455,0.0,0.0,0.0,0.0024999999441206455,0.0,0.0,0.0,0.019999999552965164,0.0,0.0,0.0,0.019999999552965164,0.0,0.0,0.0,0.019999999552965164,0.29628247022628784,-0.24241292476654053,9.653421401977539,0.03999999910593033,0.0,0.0,0.0,0.03999999910593033,0.0,0.0,0.0,0.03999999910593033
1779692042390812679,419489,1779692042375887763,imu_link,-0.01006294321268797,-0.014716790057718754,0.11091384291648865,0.9936657547950745,0.0024999999441206455,0.0,0.0,0.0,0.0024999999441206455,0.0,0.0,0.0,0.0024999999441206455,0.0,0.0,0.0,0.019999999552965164,0.0,0.0,0.0,0.019999999552965164,0.0,0.0,0.0,0.019999999552965164,0.2974795699119568,-0.2621650695800781,9.646238327026367,0.03999999910593033,0.0,0.0,0.0,0.03999999910593033,0.0,0.0,0.0,0.03999999910593033
1779692042396520035,419490,1779692042380887763,imu_link,-0.01006294321268797,-0.014716790057718754,0.11091384291648865,0.9936657547950745,0.0024999999441206455,0.0,0.0,0.0,0.0024999999441206455,0.0,0.0,0.0,0.0024999999441206455,0.0,0.0,0.0,0.019999999552965164,0.0,0.0,0.0,0.019999999552965164,0.0,0.0,0.0,0.019999999552965164,0.2974795699119568,-0.2621650695800781,9.646238327026367,0.03999999910593033,0.0,0.0,0.0,0.03999999910593033,0.0,0.0,0.0,0.03999999910593033
1779692042402876518,419491,1779692042385887763,imu_link,-0.010360893793404102,-0.015397759154438972,0.11090992391109467,0.993652880191803,0.0024999999441206455,0.0,0.0,0.0,0.0024999999441206455,0.0,0.0,0.0,0.0024999999441206455,0.0,0.0,0.0,0.019999999552965164,0.0,0.0,0.0,0.019999999552965164,0.0,0.0,0.0,0.019999999552965164,0.31364041566848755,-0.25498247146606445,9.63306999206543,0.03999999910593033,0.0,0.0,0.0,0.03999999910593033,0.0,0.0,0.0,0.03999999910593033
1779692042480509189,419492,1779692042390887763,imu_link,-0.010345181450247765,-0.01613670028746128,0.11090078949928284,0.993642270565033,0.0024999999441206455,0.0,0.0,0.0,0.0024999999441206455,0.0,0.0,0.0,0.0024999999441206455,0.0,0.0,0.0,0.019999999552965164,0.0,0.0,0.0,0.019999999552965164,0.0,0.0,0.0,0.019999999552965164,0.3208230137825012,-0.23582886159420013,9.636661529541016,0.03999999910593033,0.0,0.0,0.0,0.03999999910593033,0.0,0.0,0.0,0.03999999910593033
1779692042480534548,419493,1779692042397887763,imu_link,-0.010882822796702385,-0.0166427344083786,0.11090265214443207,0.9936279654502869,0.0024999999441206455,0.0,0.0,0.0,0.0024999999441206455,0.0,0.0,0.0,0.0024999999441206455,0.0,0.0,0.0,0.019999999552965164,0.0,0.0,0.0,0.019999999552965164,0.0,0.0,0.0,0.019999999552965164,0.2902969419956207,-0.23702596127986908,9.634865760803223,0.03999999910593033,0.0,0.0,0.0,0.03999999910593033,0.0,0.0,0.0,0.03999999910593033
1779692042480537959,419494,1779692042406887763,imu_link,-0.010882822796702385,-0.0166427344083786,0.11090265214443207,0.9936279654502869,0.0024999999441206455,0.0,0.0,0.0,0.0024999999441206455,0.0,0.0,0.0,0.0024999999441206455,0.0,0.0,0.0,0.019999999552965164,0.0,0.0,0.0,0.019999999552965164,0.0,0.0,0.0,0.019999999552965164,0.2902969419956207,-0.23702596127986908,9.634865760803223,0.03999999910593033,0.0,0.0,0.0,0.03999999910593033,0.0,0.0,0.0,0.03999999910593033
1779692042480539525,419495,1779692042409887763,imu_link,-0.011212763376533985,-0.017768429592251778,0.11089339107275009,0.9936059713363647,0.0024999999441206455,0.0,0.0,0.0,0.0024999999441206455,0.0,0.0,0.0,0.0024999999441206455,0.0,0.0,0.0,0.019999999552965164,0.0,0.0,0.0,0.019999999552965164,0.0,0.0,0.0,0.019999999552965164,0.3058592677116394,-0.24839842319488525,9.633668899536133,0.03999999910593033,0.0,0.0,0.0,0.03999999910593033,0.0,0.0,0.0,0.03999999910593033
1779692042480546525,419496,1779692042454887763,imu_link,-0.015043704770505428,-0.016248706728219986,0.11097528040409088,0.9935721755027771,0.0024999999441206455,0.0,0.0,0.0,0.0024999999441206455,0.0,0.0,0.0,0.0024999999441206455,0.0,0.0,0.0,0.019999999552965164,0.0,0.0,0.0,0.019999999552965164,0.0,0.0,0.0,0.019999999552965164,0.30885201692581177,-0.26815059781074524,9.644442558288574,0.03999999910593033,0.0,0.0,0.0,0.03999999910593033,0.0,0.0,0.0,0.03999999910593033
1779692042484297765,419497,1779692042457887763,imu_link,-0.01435888558626175,-0.01627337746322155,0.11096491664648056,0.9935830235481262,0.0024999999441206455,0.0,0.0,0.0,0.0024999999441206455,0.0,0.0,0.0,0.0024999999441206455,0.0,0.0,0.0,0.019999999552965164,0.0,0.0,0.0,0.019999999552965164,0.0,0.0,0.0,0.019999999552965164,0.29209259152412415,-0.243011474609375,9.665990829467773,0.03999999910593033,0.0,0.0,0.0,0.03999999910593033,0.0,0.0,0.0,0.03999999910593033
1779692042484311121,419498,1779692042462887763,imu_link,-0.01435888558626175,-0.01627337746322155,0.11096491664648056,0.9935830235481262,0.0024999999441206455,0.0,0.0,0.0,0.0024999999441206455,0.0,0.0,0.0,0.0024999999441206455,0.0,0.0,0.0,0.019999999552965164,0.0,0.0,0.0,0.019999999552965164,0.0,0.0,0.0,0.019999999552965164,0.29209259152412415,-0.243011474609375,9.665990829467773,0.03999999910593033,0.0,0.0,0.0,0.03999999910593033,0.0,0.0,0.0,0.03999999910593033
1779692042488013077,419499,1779692042467887763,imu_link,-0.013755940832197666,-0.01670638844370842,0.11094912886619568,0.9935861825942993,0.0024999999441206455,0.0,0.0,0.0,0.0024999999441206455,0.0,0.0,0.0,0.0024999999441206455,0.0,0.0,0.0,0.019999999552965164,0.0,0.0,0.0,0.019999999552965164,0.0,0.0,0.0,0.019999999552965164,0.33698388934135437,-0.24839842319488525,9.639654159545898,0.03999999910593033,0.0,0.0,0.0,0.03999999910593033,0.0,0.0,0.0,0.03999999910593033
1779692042491078810,419500,1779692042472887763,imu_link,-0.01305053848773241,-0.016920680180191994,0.11093512177467346,0.9935935735702515,0.0024999999441206455,0.0,0.0,0.0,0.0024999999441206455,0.0,0.0,0.0,0.0024999999441206455,0.0,0.0,0.0,0.019999999552965164,0.0,0.0,0.0,0.019999999552965164,0.0,0.0,0.0,0.019999999552965164,0.3124433159828186,-0.24361002445220947,9.583390235900879,0.03999999910593033,0.0,0.0,0.0,0.03999999910593033,0.0,0.0,0.0,0.03999999910593033
1779692042496971398,419501,1779692042479887763,imu_link,-0.01236908882856369,-0.01720423623919487,0.11092041432857513,0.9935991168022156,0.0024999999441206455,0.0,0.0,0.0,0.0024999999441206455,0.0,0.0,0.0,0.0024999999441206455,0.0,0.0,0.0,0.019999999552965164,0.0,0.0,0.0,0.019999999552965164,0.0,0.0,0.0,0.019999999552965164,0.3196259140968323,-0.24420857429504395,9.634865760803223,0.03999999910593033,0.0,0.0,0.0,0.03999999910593033,0.0,0.0,0.0,0.03999999910593033
1779692042521382269,419502,1779692042488887763,imu_link,-0.01236908882856369,-0.01720423623919487,0.11092041432857513,0.9935991168022156,0.0024999999441206455,0.0,0.0,0.0,0.0024999999441206455,0.0,0.0,0.0,0.0024999999441206455,0.0,0.0,0.0,0.019999999552965164,0.0,0.0,0.0,0.019999999552965164,0.0,0.0,0.0,0.019999999552965164,0.3196259140968323,-0.24420857429504395,9.634865760803223,0.03999999910593033,0.0,0.0,0.0,0.03999999910593033,0.0,0.0,0.0,0.03999999910593033
1779692042527944134,419503,1779692042491887763,imu_link,-0.011497296392917633,-0.017990393564105034,0.11089544743299484,0.9935984015464783,0.0024999999441206455,0.0,0.0,0.0,0.0024999999441206455,0.0,0.0,0.0,0.0024999999441206455,0.0,0.0,0.0,0.019999999552965164,0.0,0.0,0.0,0.019999999552965164,0.0,0.0,0.0,0.019999999552965164,0.3274070918560028,-0.25438392162323,9.670180320739746,0.03999999910593033,0.0,0.0,0.0,0.03999999910593033,0.0,0.0,0.0,0.03999999910593033
1779692042563899408,419504,1779692042536887763,imu_link,-0.014132124371826649,-0.014822715893387794,0.11098078638315201,0.993607223033905,0.0024999999441206455,0.0,0.0,0.0,0.0024999999441206455,0.0,0.0,0.0,0.0024999999441206455,0.0,0.0,0.0,0.019999999552965164,0.0,0.0,0.0,0.019999999552965164,0.0,0.0,0.0,0.019999999552965164,0.3166331648826599,-0.2621650695800781,9.655815124511719,0.03999999910593033,0.0,0.0,0.0,0.03999999910593033,0.0,0.0,0.0,0.03999999910593033
1779692042568636142,419505,1779692042539887763,imu_link,-0.013548662886023521,-0.015178409405052662,0.1109674945473671,0.9936114549636841,0.0024999999441206455,0.0,0.0,0.0,0.0024999999441206455,0.0,0.0,0.0,0.0024999999441206455,0.0,0.0,0.0,0.019999999552965164,0.0,0.0,0.0,0.019999999552965164,0.0,0.0,0.0,0.019999999552965164,0.31364041566848755,-0.2238578498363495,9.61451530456543,0.03999999910593033,0.0,0.0,0.0,0.03999999910593033,0.0,0.0,0.0,0.03999999910593033
1779692042568675694,419506,1779692042544887763,imu_link,-0.013548662886023521,-0.015178409405052662,0.1109674945473671,0.9936114549636841,0.0024999999441206455,0.0,0.0,0.0,0.0024999999441206455,0.0,0.0,0.0,0.0024999999441206455,0.0,0.0,0.0,0.019999999552965164,0.0,0.0,0.0,0.019999999552965164,0.0,0.0,0.0,0.019999999552965164,0.31364041566848755,-0.2238578498363495,9.61451530456543,0.03999999910593033,0.0,0.0,0.0,0.03999999910593033,0.0,0.0,0.0,0.03999999910593033
1779692042572866596,419507,1779692042549887763,imu_link,-0.012953246012330055,-0.015623255632817745,0.11095264554023743,0.9936141967773438,0.0024999999441206455,0.0,0.0,0.0,0.0024999999441206455,0.0,0.0,0.0,0.0024999999441206455,0.0,0.0,0.0,0.019999999552965164,0.0,0.0,0.0,0.019999999552965164,0.0,0.0,0.0,0.019999999552965164,0.2968810200691223,-0.2555810213088989,9.64923095703125,0.03999999910593033,0.0,0.0,0.0,0.03999999910593033,0.0,0.0,0.0,0.03999999910593033
1779692042575540056,419508,1779692042554887763,imu_link,-0.012390175834298134,-0.016103172674775124,0.11093765497207642,0.9936152696609497,0.0024999999441206455,0.0,0.0,0.0,0.0024999999441206455,0.0,0.0,0.0,0.0024999999441206455,0.0,0.0,0.0,0.019999999552965164,0.0,0.0,0.0,0.019999999552965164,0.0,0.0,0.0,0.019999999552965164,0.3076549172401428,-0.24839842319488525,9.644442558288574,0.03999999910593033,0.0,0.0,0.0,0.03999999910593033,0.0,0.0,0.0,0.03999999910593033
1779692042581028810,419509,1779692042561887763,imu_link,-0.011688855476677418,-0.016333866864442825,0.1109241247177124,0.9936215877532959,0.0024999999441206455,0.0,0.0,0.0,0.0024999999441206455,0.0,0.0,0.0,0.0024999999441206455,0.0,0.0,0.0,0.019999999552965164,0.0,0.0,0.0,0.019999999552965164,0.0,0.0,0.0,0.019999999552965164,0.29628247022628784,-0.24061726033687592,9.63306999206543,0.03999999910593033,0.0,0.0,0.0,0.03999999910593033,0.0,0.0,0.0,0.03999999910593033
1779692042606590993,419510,1779692042570887763,imu_link,-0.011688855476677418,-0.016333866864442825,0.1109241247177124,0.9936215877532959,0.0024999999441206455,0.0,0.0,0.0,0.0024999999441206455,0.0,0.0,0.0,0.0024999999441206455,0.0,0.0,0.0,0.019999999552965164,0.0,0.0,0.0,0.019999999552965164,0.0,0.0,0.0,0.019999999552965164,0.29628247022628784,-0.24061726033687592,9.63306999206543,0.03999999910593033,0.0,0.0,0.0,0.03999999910593033,0.0,0.0,0.0,0.03999999910593033
1779692042633735116,419511,1779692042573887763,imu_link,-0.011455507017672062,-0.017484314739704132,0.11090511083602905,0.9936068654060364,0.0024999999441206455,0.0,0.0,0.0,0.0024999999441206455,0.0,0.0,0.0,0.0024999999441206455,0.0,0.0,0.0,0.019999999552965164,0.0,0.0,0.0,0.019999999552965164,0.0,0.0,0.0,0.019999999552965164,0.3010708689689636,-0.25737667083740234,9.621698379516602,0.03999999910593033,0.0,0.0,0.0,0.03999999910593033,0.0,0.0,0.0,0.03999999910593033
1779692042636469058,419512,1779692042620887763,imu_link,-0.011199258267879486,-0.013175218366086483,0.11095737665891647,0.9936704039573669,0.0024999999441206455,0.0,0.0,0.0,0.0024999999441206455,0.0,0.0,0.0,0.0024999999441206455,0.0,0.0,0.0,0.019999999552965164,0.0,0.0,0.0,0.019999999552965164,0.0,0.0,0.0,0.019999999552965164,0.2795230448246002,-0.2513911724090576,9.626486778259277,0.03999999910593033,0.0,0.0,0.0,0.03999999910593033,0.0,0.0,0.0,0.03999999910593033
1779692042640610584,419513,1779692042623887763,imu_link,-0.011061115190386772,-0.013844234868884087,0.11094729602336884,0.993664026260376,0.0024999999441206455,0.0,0.0,0.0,0.0024999999441206455,0.0,0.0,0.0,0.0024999999441206455,0.0,0.0,0.0,0.019999999552965164,0.0,0.0,0.0,0.019999999552965164,0.0,0.0,0.0,0.019999999552965164,0.3298012912273407,-0.23403321206569672,9.658209800720215,0.03999999910593033,0.0,0.0,0.0,0.03999999910593033,0.0,0.0,0.0,0.03999999910593033
1779692042646717735,419514,1779692042628887763,imu_link,-0.011061115190386772,-0.013844234868884087,0.11094729602336884,0.993664026260376,0.0024999999441206455,0.0,0.0,0.0,0.0024999999441206455,0.0,0.0,0.0,0.0024999999441206455,0.0,0.0,0.0,0.019999999552965164,0.0,0.0,0.0,0.019999999552965164,0.0,0.0,0.0,0.019999999552965164,0.3298012912273407,-0.23403321206569672,9.658209800720215,0.03999999910593033,0.0,0.0,0.0,0.03999999910593033,0.0,0.0,0.0,0.03999999910593033
1779692042653319582,419515,1779692042633887763,imu_link,-0.011075393296778202,-0.01458816509693861,0.11093811690807343,0.993654191493988,0.0024999999441206455,0.0,0.0,0.0,0.0024999999441206455,0.0,0.0,0.0,0.0024999999441206455,0.0,0.0,0.0,0.019999999552965164,0.0,0.0,0.0,0.019999999552965164,0.0,0.0,0.0,0.019999999552965164,0.2992752194404602,-0.2495955228805542,9.656414031982422,0.03999999910593033,0.0,0.0,0.0,0.03999999910593033,0.0,0.0,0.0,0.03999999910593033
1779692042658891615,419516,1779692042638887763,imu_link,-0.011008706875145435,-0.015325138345360756,0.11092789471149445,0.9936450123786926,0.0024999999441206455,0.0,0.0,0.0,0.0024999999441206455,0.0,0.0,0.0,0.0024999999441206455,0.0,0.0,0.0,0.019999999552965164,0.0,0.0,0.0,0.019999999552965164,0.0,0.0,0.0,0.019999999552965164,0.30526071786880493,-0.24480712413787842,9.648633003234863,0.03999999910593033,0.0,0.0,0.0,0.03999999910593033,0.0,0.0,0.0,0.03999999910593033
1779692042664838364,419517,1779692042645887763,imu_link,-0.01103674154728651,-0.016062384471297264,0.11091892421245575,0.9936339855194092,0.0024999999441206455,0.0,0.0,0.0,0.0024999999441206455,0.0,0.0,0.0,0.0024999999441206455,0.0,0.0,0.0,0.019999999552965164,0.0,0.0,0.0,0.019999999552965164,0.0,0.0,0.0,0.019999999552965164,0.32261866331100464,-0.2513911724090576,9.623493194580078,0.03999999910593033,0.0,0.0,0.0,0.03999999910593033,0.0,0.0,0.0,0.03999999910593033
1779692042688764460,419518,1779692042654887763,imu_link,-0.01103674154728651,-0.016062384471297264,0.11091892421245575,0.9936339855194092,0.0024999999441206455,0.0,0.0,0.0,0.0024999999441206455,0.0,0.0,0.0,0.0024999999441206455,0.0,0.0,0.0,0.019999999552965164,0.0,0.0,0.0,0.019999999552965164,0.0,0.0,0.0,0.019999999552965164,0.32261866331100464,-0.2513911724090576,9.623493194580078,0.03999999910593033,0.0,0.0,0.0,0.03999999910593033,0.0,0.0,0.0,0.03999999910593033
1779692042694980490,419519,1779692042657887763,imu_link,-0.011635029688477516,-0.017071595415472984,0.11091481149196625,0.9936109185218811,0.0024999999441206455,0.0,0.0,0.0,0.0024999999441206455,0.0,0.0,0.0,0.0024999999441206455,0.0,0.0,0.0,0.019999999552965164,0.0,0.0,0.0,0.019999999552965164,0.0,0.0,0.0,0.019999999552965164,0.3058592677116394,-0.2621650695800781,9.624092102050781,0.03999999910593033,0.0,0.0,0.0,0.03999999910593033,0.0,0.0,0.0,0.03999999910593033
1779692042727814081,419520,1779692042705887763,imu_link,-0.007344155106693506,-0.0160262081772089,0.11086051911115646,0.9936752915382385,0.0024999999441206455,0.0,0.0,0.0,0.0024999999441206455,0.0,0.0,0.0,0.0024999999441206455,0.0,0.0,0.0,0.019999999552965164,0.0,0.0,0.0,0.019999999552965164,0.0,0.0,0.0,0.019999999552965164,0.2968810200691223,-0.20769698917865753,9.68155288696289,0.03999999910593033,0.0,0.0,0.0,0.03999999910593033,0.0,0.0,0.0,0.03999999910593033
1779692042731007675,419521,1779692042708887763,imu_link,-0.007934864610433578,-0.016368059441447258,0.11086632311344147,0.993664562702179,0.0024999999441206455,0.0,0.0,0.0,0.0024999999441206455,0.0,0.0,0.0,0.0024999999441206455,0.0,0.0,0.0,0.019999999552965164,0.0,0.0,0.0,0.019999999552965164,0.0,0.0,0.0,0.019999999552965164,0.32261866331100464,-0.24660277366638184,9.625887870788574,0.03999999910593033,0.0,0.0,0.0,0.03999999910593033,0.0,0.0,0.0,0.03999999910593033
1779692042731027396,419522,1779692042713887763,imu_link,-0.007934864610433578,-0.016368059441447258,0.11086632311344147,0.993664562702179,0.0024999999441206455,0.0,0.0,0.0,0.0024999999441206455,0.0,0.0,0.0,0.0024999999441206455,0.0,0.0,0.0,0.019999999552965164,0.0,0.0,0.0,0.019999999552965164,0.0,0.0,0.0,0.019999999552965164,0.32261866331100464,-0.24660277366638184,9.625887870788574,0.03999999910593033,0.0,0.0,0.0,0.03999999910593033,0.0,0.0,0.0,0.03999999910593033
1779692042734888202,419523,1779692042718887763,imu_link,-0.008582371287047863,-0.01672656461596489,0.1108727753162384,0.9936524629592896,0.0024999999441206455,0.0,0.0,0.0,0.0024999999441206455,0.0,0.0,0.0,0.0024999999441206455,0.0,0.0,0.0,0.019999999552965164,0.0,0.0,0.0,0.019999999552965164,0.0,0.0,0.0,0.019999999552965164,0.31184476613998413,-0.22266075015068054,9.649829864501953,0.03999999910593033,0.0,0.0,0.0,0.03999999910593033,0.0,0.0,0.0,0.03999999910593033
1779692042741367621,419524,1779692042723887763,imu_link,-0.00930780079215765,-0.016861967742443085,0.1108827218413353,0.9936426281929016,0.0024999999441206455,0.0,0.0,0.0,0.0024999999441206455,0.0,0.0,0.0,0.0024999999441206455,0.0,0.0,0.0,0.019999999552965164,0.0,0.0,0.0,0.019999999552965164,0.0,0.0,0.0,0.019999999552965164,0.30526071786880493,-0.25079262256622314,9.613916397094727,0.03999999910593033,0.0,0.0,0.0,0.03999999910593033,0.0,0.0,0.0,0.03999999910593033
1779692042747289751,419525,1779692042730887763,imu_link,-0.009949549101293087,-0.016492590308189392,0.11089688539505005,0.9936408996582031,0.0024999999441206455,0.0,0.0,0.0,0.0024999999441206455,0.0,0.0,0.0,0.0024999999441206455,0.0,0.0,0.0,0.019999999552965164,0.0,0.0,0.0,0.019999999552965164,0.0,0.0,0.0,0.019999999552965164,0.2735375463962555,-0.2519897222518921,9.59177017211914,0.03999999910593033,0.0,0.0,0.0,0.03999999910593033,0.0,0.0,0.0,0.03999999910593033
1779692042773818758,419526,1779692042739887763,imu_link,-0.009949549101293087,-0.016492590308189392,0.11089688539505005,0.9936408996582031,0.0024999999441206455,0.0,0.0,0.0,0.0024999999441206455,0.0,0.0,0.0,0.0024999999441206455,0.0,0.0,0.0,0.019999999552965164,0.0,0.0,0.0,0.019999999552965164,0.0,0.0,0.0,0.019999999552965164,0.2735375463962555,-0.2519897222518921,9.59177017211914,0.03999999910593033,0.0,0.0,0.0,0.03999999910593033,0.0,0.0,0.0,0.03999999910593033
1779692042779602428,419527,1779692042742887763,imu_link,-0.01108434610068798,-0.016777824610471725,0.1109108254313469,0.9936226010322571,0.0024999999441206455,0.0,0.0,0.0,0.0024999999441206455,0.0,0.0,0.0,0.0024999999441206455,0.0,0.0,0.0,0.019999999552965164,0.0,0.0,0.0,0.019999999552965164,0.0,0.0,0.0,0.019999999552965164,0.29867666959762573,-0.2495955228805542,9.660603523254395,0.03999999910593033,0.0,0.0,0.0,0.03999999910593033,0.0,0.0,0.0,0.03999999910593033
1779692042803334204,419528,1779692042787887763,imu_link,-0.01464535016566515,-0.01885467767715454,0.11093813180923462,0.9935361742973328,0.0024999999441206455,0.0,0.0,0.0,0.0024999999441206455,0.0,0.0,0.0,0.0024999999441206455,0.0,0.0,0.0,0.019999999552965164,0.0,0.0,0.0,0.019999999552965164,0.0,0.0,0.0,0.019999999552965164,0.30526071786880493,-0.264559268951416,9.64803409576416,0.03999999910593033,0.0,0.0,0.0,0.03999999910593033,0.0,0.0,0.0,0.03999999910593033
1779692042809250196,419529,1779692042790887763,imu_link,-0.013996600173413754,-0.018639547750353813,0.11093057692050934,0.9935503602027893,0.0024999999441206455,0.0,0.0,0.0,0.0024999999441206455,0.0,0.0,0.0,0.0024999999441206455,0.0,0.0,0.0,0.019999999552965164,0.0,0.0,0.0,0.019999999552965164,0.0,0.0,0.0,0.019999999552965164,0.31842881441116333,-0.2627636194229126,9.663596153259277,0.03999999910593033,0.0,0.0,0.0,0.03999999910593033,0.0,0.0,0.0,0.03999999910593033
1779692042815536065,419530,1779692042795887763,imu_link,-0.013996600173413754,-0.018639547750353813,0.11093057692050934,0.9935503602027893,0.0024999999441206455,0.0,0.0,0.0,0.0024999999441206455,0.0,0.0,0.0,0.0024999999441206455,0.0,0.0,0.0,0.019999999552965164,0.0,0.0,0.0,0.019999999552965164,0.0,0.0,0.0,0.019999999552965164,0.31842881441116333,-0.2627636194229126,9.663596153259277,0.03999999910593033,0.0,0.0,0.0,0.03999999910593033,0.0,0.0,0.0,0.03999999910593033
1779692042821451662,419531,1779692042800887763,imu_link,-0.013350693508982658,-0.01827935129404068,0.1109253540635109,0.9935666918754578,0.0024999999441206455,0.0,0.0,0.0,0.0024999999441206455,0.0,0.0,0.0,0.0024999999441206455,0.0,0.0,0.0,0.019999999552965164,0.0,0.0,0.0,0.019999999552965164,0.0,0.0,0.0,0.019999999552965164,0.3034650683403015,-0.25258827209472656,9.611522674560547,0.03999999910593033,0.0,0.0,0.0,0.03999999910593033,0.0,0.0,0.0,0.03999999910593033
1779692042827409034,419532,1779692042805887763,imu_link,-0.012735900469124317,-0.01787150464951992,0.11092129349708557,0.9935826063156128,0.0024999999441206455,0.0,0.0,0.0,0.0024999999441206455,0.0,0.0,0.0,0.0024999999441206455,0.0,0.0,0.0,0.019999999552965164,0.0,0.0,0.0,0.019999999552965164,0.0,0.0,0.0,0.019999999552965164,0.28790274262428284,-0.22864626348018646,9.648633003234863,0.03999999910593033,0.0,0.0,0.0,0.03999999910593033,0.0,0.0,0.0,0.03999999910593033
1779692042833563878,419533,1779692042812887763,imu_link,-0.012072082608938217,-0.017545394599437714,0.1109151840209961,0.9935973286628723,0.0024999999441206455,0.0,0.0,0.0,0.0024999999441206455,0.0,0.0,0.0,0.0024999999441206455,0.0,0.0,0.0,0.019999999552965164,0.0,0.0,0.0,0.019999999552965164,0.0,0.0,0.0,0.019999999552965164,0.2998737692832947,-0.23702596127986908,9.677363395690918,0.03999999910593033,0.0,0.0,0.0,0.03999999910593033,0.0,0.0,0.0,0.03999999910593033
1779692042857844501,419534,1779692042821887763,imu_link,-0.012072082608938217,-0.017545394599437714,0.1109151840209961,0.9935973286628723,0.0024999999441206455,0.0,0.0,0.0,0.0024999999441206455,0.0,0.0,0.0,0.0024999999441206455,0.0,0.0,0.0,0.019999999552965164,0.0,0.0,0.0,0.019999999552965164,0.0,0.0,0.0,0.019999999552965164,0.2998737692832947,-0.23702596127986908,9.677363395690918,0.03999999910593033,0.0,0.0,0.0,0.03999999910593033,0.0,0.0,0.0,0.03999999910593033
1779692042863979150,419535,1779692042824887763,imu_link,-0.010912793688476086,-0.01770373061299324,0.11089422553777695,0.9936102032661438,0.0024999999441206455,0.0,0.0,0.0,0.0024999999441206455,0.0,0.0,0.0,0.0024999999441206455,0.0,0.0,0.0,0.019999999552965164,0.0,0.0,0.0,0.019999999552965164,0.0,0.0,0.0,0.019999999552965164,0.31842881441116333,-0.23403321206569672,9.61571216583252,0.03999999910593033,0.0,0.0,0.0,0.03999999910593033,0.0,0.0,0.0,0.03999999910593033
1779692042888828510,419536,1779692042873887763,imu_link,-0.01483226753771305,-0.015442815609276295,0.11098629236221313,0.9935869574546814,0.0024999999441206455,0.0,0.0,0.0,0.0024999999441206455,0.0,0.0,0.0,0.0024999999441206455,0.0,0.0,0.0,0.019999999552965164,0.0,0.0,0.0,0.019999999552965164,0.0,0.0,0.0,0.019999999552965164,0.3058592677116394,-0.2627636194229126,9.664793968200684,0.03999999910593033,0.0,0.0,0.0,0.03999999910593033,0.0,0.0,0.0,0.03999999910593033
1779692042894682506,419537,1779692042876887763,imu_link,-0.014184745028614998,-0.01566610299050808,0.11097370833158493,0.9935942888259888,0.0024999999441206455,0.0,0.0,0.0,0.0024999999441206455,0.0,0.0,0.0,0.0024999999441206455,0.0,0.0,0.0,0.019999999552965164,0.0,0.0,0.0,0.019999999552965164,0.0,0.0,0.0,0.019999999552965164,0.2902969419956207,-0.2609679698944092,9.620500564575195,0.03999999910593033,0.0,0.0,0.0,0.03999999910593033,0.0,0.0,0.0,0.03999999910593033
1779692042900903146,419538,1779692042881887763,imu_link,-0.014184745028614998,-0.01566610299050808,0.11097370833158493,0.9935942888259888,0.0024999999441206455,0.0,0.0,0.0,0.0024999999441206455,0.0,0.0,0.0,0.0024999999441206455,0.0,0.0,0.0,0.019999999552965164,0.0,0.0,0.0,0.019999999552965164,0.0,0.0,0.0,0.019999999552965164,0.2902969419956207,-0.2609679698944092,9.620500564575195,0.03999999910593033,0.0,0.0,0.0,0.03999999910593033,0.0,0.0,0.0,0.03999999910593033
1779692042906668113,419539,1779692042886887763,imu_link,-0.013645967468619347,-0.01617414690554142,0.11095809191465378,0.9935954213142395,0.0024999999441206455,0.0,0.0,0.0,0.0024999999441206455,0.0,0.0,0.0,0.0024999999441206455,0.0,0.0,0.0,0.019999999552965164,0.0,0.0,0.0,0.019999999552965164,0.0,0.0,0.0,0.019999999552965164,0.33339259028434753,-0.2537853717803955,9.676764488220215,0.03999999910593033,0.0,0.0,0.0,0.03999999910593033,0.0,0.0,0.0,0.03999999910593033
1779692042933989038,419540,1779692042891887763,imu_link,-0.012959731742739677,-0.016445057466626167,0.11094390600919724,0.9936017394065857,0.0024999999441206455,0.0,0.0,0.0,0.0024999999441206455,0.0,0.0,0.0,0.0024999999441206455,0.0,0.0,0.0,0.019999999552965164,0.0,0.0,0.0,0.019999999552965164,0.0,0.0,0.0,0.019999999552965164,0.3016694188117981,-0.2555810213088989,9.622895240783691,0.03999999910593033,0.0,0.0,0.0,0.03999999910593033,0.0,0.0,0.0,0.03999999910593033
1779692042936816106,419541,1779692042898887763,imu_link,-0.012221801094710827,-0.016383958980441093,0.11093377321958542,0.9936132431030273,0.0024999999441206455,0.0,0.0,0.0,0.0024999999441206455,0.0,0.0,0.0,0.0024999999441206455,0.0,0.0,0.0,0.019999999552965164,0.0,0.0,0.0,0.019999999552965164,0.0,0.0,0.0,0.019999999552965164,0.2885012924671173,-0.2669534981250763,9.655217170715332,0.03999999910593033,0.0,0.0,0.0,0.03999999910593033,0.0,0.0,0.0,0.03999999910593033
1779692042942893226,419542,1779692042907887763,imu_link,-0.012221801094710827,-0.016383958980441093,0.11093377321958542,0.9936132431030273,0.0024999999441206455,0.0,0.0,0.0,0.0024999999441206455,0.0,0.0,0.0,0.0024999999441206455,0.0,0.0,0.0,0.019999999552965164,0.0,0.0,0.0,0.019999999552965164,0.0,0.0,0.0,0.019999999552965164,0.2885012924671173,-0.2669534981250763,9.655217170715332,0.03999999910593033,0.0,0.0,0.0,0.03999999910593033,0.0,0.0,0.0,0.03999999910593033
1779692042949430301,419543,1779692042910887763,imu_link,-0.01107123401015997,-0.016601745039224625,0.1109134778380394,0.9936253428459167,0.0024999999441206455,0.0,0.0,0.0,0.0024999999441206455,0.0,0.0,0.0,0.0024999999441206455,0.0,0.0,0.0,0.019999999552965164,0.0,0.0,0.0,0.019999999552965164,0.0,0.0,0.0,0.019999999552965164,0.2974795699119568,-0.23762451112270355,9.633668899536133,0.03999999910593033,0.0,0.0,0.0,0.03999999910593033,0.0,0.0,0.0,0.03999999910593033
1779692042973619409,419544,1779692042958887763,imu_link,-0.007878106087446213,-0.019661536440253258,0.11082431674003601,0.9936099648475647,0.0024999999441206455,0.0,0.0,0.0,0.0024999999441206455,0.0,0.0,0.0,0.0024999999441206455,0.0,0.0,0.0,0.019999999552965164,0.0,0.0,0.0,0.019999999552965164,0.0,0.0,0.0,0.019999999552965164,0.30286651849746704,-0.24001871049404144,9.622895240783691,0.03999999910593033,0.0,0.0,0.0,0.03999999910593033,0.0,0.0,0.0,0.03999999910593033
1779692042979719917,419545,1779692042961887763,imu_link,-0.008417543023824692,-0.019238542765378952,0.11083859205245972,0.9936121702194214,0.0024999999441206455,0.0,0.0,0.0,0.0024999999441206455,0.0,0.0,0.0,0.0024999999441206455,0.0,0.0,0.0,0.019999999552965164,0.0,0.0,0.0,0.019999999552965164,0.0,0.0,0.0,0.019999999552965164,0.2992752194404602,-0.2561795711517334,9.658807754516602,0.03999999910593033,0.0,0.0,0.0,0.03999999910593033,0.0,0.0,0.0,0.03999999910593033
1779692042985580759,419546,1779692042966887763,imu_link,-0.008417543023824692,-0.019238542765378952,0.11083859205245972,0.9936121702194214,0.0024999999441206455,0.0,0.0,0.0,0.0024999999441206455,0.0,0.0,0.0,0.0024999999441206455,0.0,0.0,0.0,0.019999999552965164,0.0,0.0,0.0,0.019999999552965164,0.0,0.0,0.0,0.019999999552965164,0.2992752194404602,-0.2561795711517334,9.658807754516602,0.03999999910593033,0.0,0.0,0.0,0.03999999910593033,0.0,0.0,0.0,0.03999999910593033
1779692042991224132,419547,1779692042971887763,imu_link,-0.00910914409905672,-0.018972711637616158,0.11085394024848938,0.9936095476150513,0.0024999999441206455,0.0,0.0,0.0,0.0024999999441206455,0.0,0.0,0.0,0.0024999999441206455,0.0,0.0,0.0,0.019999999552965164,0.0,0.0,0.0,0.019999999552965164,0.0,0.0,0.0,0.019999999552965164,0.31783026456832886,-0.2693476974964142,9.673172950744629,0.03999999910593033,0.0,0.0,0.0,0.03999999910593033,0.0,0.0,0.0,0.03999999910593033
1779692042997266148,419548,1779692042976887763,imu_link,-0.009486273862421513,-0.01833794079720974,0.11086772382259369,0.9936163425445557,0.0024999999441206455,0.0,0.0,0.0,0.0024999999441206455,0.0,0.0,0.0,0.0024999999441206455,0.0,0.0,0.0,0.019999999552965164,0.0,0.0,0.0,0.019999999552965164,0.0,0.0,0.0,0.019999999552965164,0.29388824105262756,-0.23942016065120697,9.676165580749512,0.03999999910593033,0.0,0.0,0.0,0.03999999910593033,0.0,0.0,0.0,0.03999999910593033
1779692043003110568,419549,1779692042983887763,imu_link,-0.010020319372415543,-0.017825264483690262,0.11088275164365768,0.9936187863349915,0.0024999999441206455,0.0,0.0,0.0,0.0024999999441206455,0.0,0.0,0.0,0.0024999999441206455,0.0,0.0,0.0,0.019999999552965164,0.0,0.0,0.0,0.019999999552965164,0.0,0.0,0.0,0.019999999552965164,0.30047231912612915,-0.24899697303771973,9.68274974822998,0.03999999910593033,0.0,0.0,0.0,0.03999999910593033,0.0,0.0,0.0,0.03999999910593033
1779692043027878650,419550,1779692042992887763,imu_link,-0.010020319372415543,-0.017825264483690262,0.11088275164365768,0.9936187863349915,0.0024999999441206455,0.0,0.0,0.0,0.0024999999441206455,0.0,0.0,0.0,0.0024999999441206455,0.0,0.0,0.0,0.019999999552965164,0.0,0.0,0.0,0.019999999552965164,0.0,0.0,0.0,0.019999999552965164,0.30047231912612915,-0.24899697303771973,9.68274974822998,0.03999999910593033,0.0,0.0,0.0,0.03999999910593033,0.0,0.0,0.0,0.03999999910593033
1779692043033593724,419551,1779692042995887763,imu_link,-0.011186334304511547,-0.017735742032527924,0.11090311408042908,0.9936057329177856,0.0024999999441206455,0.0,0.0,0.0,0.0024999999441206455,0.0,0.0,0.0,0.0024999999441206455,0.0,0.0,0.0,0.019999999552965164,0.0,0.0,0.0,0.019999999552965164,0.0,0.0,0.0,0.019999999552965164,0.314238965511322,-0.2603694200515747,9.630077362060547,0.03999999910593033,0.0,0.0,0.0,0.03999999910593033,0.0,0.0,0.0,0.03999999910593033
1779692043058297146,419552,1779692043045887763,imu_link,-0.006938806734979153,-0.01592012122273445,0.1108560636639595,0.9936803579330444,0.0024999999441206455,0.0,0.0,0.0,0.0024999999441206455,0.0,0.0,0.0,0.0024999999441206455,0.0,0.0,0.0,0.019999999552965164,0.0,0.0,0.0,0.019999999552965164,0.0,0.0,0.0,0.019999999552965164,0.3082534670829773,-0.2322375625371933,9.569025039672852,0.03999999910593033,0.0,0.0,0.0,0.03999999910593033,0.0,0.0,0.0,0.03999999910593033
1779692043064595693,419553,1779692043048887763,imu_link,-0.0075174421072006226,-0.016277501359581947,0.11086165904998779,0.9936698079109192,0.0024999999441206455,0.0,0.0,0.0,0.0024999999441206455,0.0,0.0,0.0,0.0024999999441206455,0.0,0.0,0.0,0.019999999552965164,0.0,0.0,0.0,0.019999999552965164,0.0,0.0,0.0,0.019999999552965164,0.3315969407558441,-0.2537853717803955,9.647435188293457,0.03999999910593033,0.0,0.0,0.0,0.03999999910593033,0.0,0.0,0.0,0.03999999910593033
1779692043071296213,419554,1779692043053887763,imu_link,-0.0075174421072006226,-0.016277501359581947,0.11086165904998779,0.9936698079109192,0.0024999999441206455,0.0,0.0,0.0,0.0024999999441206455,0.0,0.0,0.0,0.0024999999441206455,0.0,0.0,0.0,0.019999999552965164,0.0,0.0,0.0,0.019999999552965164,0.0,0.0,0.0,0.019999999552965164,0.3315969407558441,-0.2537853717803955,9.647435188293457,0.03999999910593033,0.0,0.0,0.0,0.03999999910593033,0.0,0.0,0.0,0.03999999910593033
1779692043076353683,419555,1779692043058887763,imu_link,-0.0082589415833354,-0.016243061050772667,0.11087331175804138,0.9936630725860596,0.0024999999441206455,0.0,0.0,0.0,0.0024999999441206455,0.0,0.0,0.0,0.0024999999441206455,0.0,0.0,0.0,0.019999999552965164,0.0,0.0,0.0,0.019999999552965164,0.0,0.0,0.0,0.019999999552965164,0.28550854325294495,-0.2388216108083725,9.611522674560547,0.03999999910593033,0.0,0.0,0.0,0.03999999910593033,0.0,0.0,0.0,0.03999999910593033
1779692043082531209,419556,1779692043063887763,imu_link,-0.008932608179748058,-0.016549907624721527,0.11088048666715622,0.9936515092849731,0.0024999999441206455,0.0,0.0,0.0,0.0024999999441206455,0.0,0.0,0.0,0.0024999999441206455,0.0,0.0,0.0,0.019999999552965164,0.0,0.0,0.0,0.019999999552965164,0.0,0.0,0.0,0.019999999552965164,0.3148375153541565,-0.2555810213088989,9.66658878326416,0.03999999910593033,0.0,0.0,0.0,0.03999999910593033,0.0,0.0,0.0,0.03999999910593033
1779692043088754995,419557,1779692043070887763,imu_link,-0.00967388041317463,-0.016539545729756355,0.11089203506708145,0.9936434626579285,0.0024999999441206455,0.0,0.0,0.0,0.0024999999441206455,0.0,0.0,0.0,0.0024999999441206455,0.0,0.0,0.0,0.019999999552965164,0.0,0.0,0.0,0.019999999552965164,0.0,0.0,0.0,0.019999999552965164,0.2914940416812897,-0.25737667083740234,9.63067626953125,0.03999999910593033,0.0,0.0,0.0,0.03999999910593033,0.0,0.0,0.0,0.03999999910593033
1779692043113210851,419558,1779692043079887763,imu_link,-0.00967388041317463,-0.016539545729756355,0.11089203506708145,0.9936434626579285,0.0024999999441206455,0.0,0.0,0.0,0.0024999999441206455,0.0,0.0,0.0,0.0024999999441206455,0.0,0.0,0.0,0.019999999552965164,0.0,0.0,0.0,0.019999999552965164,0.0,0.0,0.0,0.019999999552965164,0.2914940416812897,-0.25737667083740234,9.63067626953125,0.03999999910593033,0.0,0.0,0.0,0.03999999910593033,0.0,0.0,0.0,0.03999999910593033
1779692043119853524,419559,1779692043082887763,imu_link,-0.010396107099950314,-0.017461011186242104,0.11089250445365906,0.9936203360557556,0.0024999999441206455,0.0,0.0,0.0,0.0024999999441206455,0.0,0.0,0.0,0.0024999999441206455,0.0,0.0,0.0,0.019999999552965164,0.0,0.0,0.0,0.019999999552965164,0.0,0.0,0.0,0.019999999552965164,0.32022446393966675,-0.24420857429504395,9.643245697021484,0.03999999910593033,0.0,0.0,0.0,0.03999999910593033,0.0,0.0,0.0,0.03999999910593033
1779692043142621687,419560,1779692043128887763,imu_link,-0.014575306326150894,-0.016854900866746902,0.11096666753292084,0.9935699701309204,0.0024999999441206455,0.0,0.0,0.0,0.0024999999441206455,0.0,0.0,0.0,0.0024999999441206455,0.0,0.0,0.0,0.019999999552965164,0.0,0.0,0.0,0.019999999552965164,0.0,0.0,0.0,0.019999999552965164,0.30945056676864624,-0.24899697303771973,9.643245697021484,0.03999999910593033,0.0,0.0,0.0,0.03999999910593033,0.0,0.0,0.0,0.03999999910593033
1779692043152458877,419561,1779692043131887763,imu_link,-0.013895540498197079,-0.01678367704153061,0.11095751821994781,0.993582010269165,0.0024999999441206455,0.0,0.0,0.0,0.0024999999441206455,0.0,0.0,0.0,0.0024999999441206455,0.0,0.0,0.0,0.019999999552965164,0.0,0.0,0.0,0.019999999552965164,0.0,0.0,0.0,0.019999999552965164,0.29209259152412415,-0.26156651973724365,9.632472038269043,0.03999999910593033,0.0,0.0,0.0,0.03999999910593033,0.0,0.0,0.0,0.03999999910593033
1779692043158027545,419562,1779692043136887763,imu_link,-0.013895540498197079,-0.01678367704153061,0.11095751821994781,0.993582010269165,0.0024999999441206455,0.0,0.0,0.0,0.0024999999441206455,0.0,0.0,0.0,0.0024999999441206455,0.0,0.0,0.0,0.019999999552965164,0.0,0.0,0.0,0.019999999552965164,0.0,0.0,0.0,0.019999999552965164,0.29209259152412415,-0.26156651973724365,9.632472038269043,0.03999999910593033,0.0,0.0,0.0,0.03999999910593033,0.0,0.0,0.0,0.03999999910593033
1779692043163460752,419563,1779692043141887763,imu_link,-0.013249672017991543,-0.017146307975053787,0.11094200611114502,0.9935861825942993,0.0024999999441206455,0.0,0.0,0.0,0.0024999999441206455,0.0,0.0,0.0,0.0024999999441206455,0.0,0.0,0.0,0.019999999552965164,0.0,0.0,0.0,0.019999999552965164,0.0,0.0,0.0,0.019999999552965164,0.31543606519699097,-0.26755204796791077,9.60912799835205,0.03999999910593033,0.0,0.0,0.0,0.03999999910593033,0.0,0.0,0.0,0.03999999910593033
1779692043169439558,419564,1779692043146887763,imu_link,-0.012510653585195541,-0.01713135465979576,0.11093069612979889,0.9935973882675171,0.0024999999441206455,0.0,0.0,0.0,0.0024999999441206455,0.0,0.0,0.0,0.0024999999441206455,0.0,0.0,0.0,0.019999999552965164,0.0,0.0,0.0,0.019999999552965164,0.0,0.0,0.0,0.019999999552965164,0.30466216802597046,-0.24660277366638184,9.647435188293457,0.03999999910593033,0.0,0.0,0.0,0.03999999910593033,0.0,0.0,0.0,0.03999999910593033
1779692043175455309,419565,1779692043153887763,imu_link,-0.011777319014072418,-0.01723482646048069,0.11091771721839905,0.9936059713363647,0.0024999999441206455,0.0,0.0,0.0,0.0024999999441206455,0.0,0.0,0.0,0.0024999999441206455,0.0,0.0,0.0,0.019999999552965164,0.0,0.0,0.0,0.019999999552965164,0.0,0.0,0.0,0.019999999552965164,0.30885201692581177,-0.24361002445220947,9.606734275817871,0.03999999910593033,0.0,0.0,0.0,0.03999999910593033,0.0,0.0,0.0,0.03999999910593033
1779692043201870293,419566,1779692043162887763,imu_link,-0.011777319014072418,-0.01723482646048069,0.11091771721839905,0.9936059713363647,0.0024999999441206455,0.0,0.0,0.0,0.0024999999441206455,0.0,0.0,0.0,0.0024999999441206455,0.0,0.0,0.0,0.019999999552965164,0.0,0.0,0.0,0.019999999552965164,0.0,0.0,0.0,0.019999999552965164,0.30885201692581177,-0.24361002445220947,9.606734275817871,0.03999999910593033,0.0,0.0,0.0,0.03999999910593033,0.0,0.0,0.0,0.03999999910593033
1779692043209251591,419567,1779692043165887763,imu_link,-0.011393909342586994,-0.018340792506933212,0.1108965054154396,0.9935929775238037,0.0024999999441206455,0.0,0.0,0.0,0.0024999999441206455,0.0,0.0,0.0,0.0024999999441206455,0.0,0.0,0.0,0.019999999552965164,0.0,0.0,0.0,0.019999999552965164,0.0,0.0,0.0,0.019999999552965164,0.32501286268234253,-0.2585737705230713,9.649829864501953,0.03999999910593033,0.0,0.0,0.0,0.03999999910593033,0.0,0.0,0.0,0.03999999910593033
1779692043232608971,419568,1779692043215887763,imu_link,-0.015164348296821117,-0.015667255967855453,0.11099503934383392,0.9935775399208069,0.0024999999441206455,0.0,0.0,0.0,0.0024999999441206455,0.0,0.0,0.0,0.0024999999441206455,0.0,0.0,0.0,0.019999999552965164,0.0,0.0,0.0,0.019999999552965164,0.0,0.0,0.0,0.019999999552965164,0.32501286268234253,-0.2603694200515747,9.641449928283691,0.03999999910593033,0.0,0.0,0.0,0.03999999910593033,0.0,0.0,0.0,0.03999999910593033
1779692043238888498,419569,1779692043218887763,imu_link,-0.014524867758154869,-0.01595139689743519,0.11098133772611618,0.9935839772224426,0.0024999999441206455,0.0,0.0,0.0,0.0024999999441206455,0.0,0.0,0.0,0.0024999999441206455,0.0,0.0,0.0,0.019999999552965164,0.0,0.0,0.0,0.019999999552965164,0.0,0.0,0.0,0.019999999552965164,0.30945056676864624,-0.25498247146606445,9.660603523254395,0.03999999910593033,0.0,0.0,0.0,0.03999999910593033,0.0,0.0,0.0,0.03999999910593033
1779692043246314026,419570,1779692043223887763,imu_link,-0.014524867758154869,-0.01595139689743519,0.11098133772611618,0.9935839772224426,0.0024999999441206455,0.0,0.0,0.0,0.0024999999441206455,0.0,0.0,0.0,0.0024999999441206455,0.0,0.0,0.0,0.019999999552965164,0.0,0.0,0.0,0.019999999552965164,0.0,0.0,0.0,0.019999999552965164,0.30945056676864624,-0.25498247146606445,9.660603523254395,0.03999999910593033,0.0,0.0,0.0,0.03999999910593033,0.0,0.0,0.0,0.03999999910593033
1779692043250983435,419571,1779692043228887763,imu_link,-0.013833549804985523,-0.016225704923272133,0.1109670028090477,0.9935909509658813,0.0024999999441206455,0.0,0.0,0.0,0.0024999999441206455,0.0,0.0,0.0,0.0024999999441206455,0.0,0.0,0.0,0.019999999552965164,0.0,0.0,0.0,0.019999999552965164,0.0,0.0,0.0,0.019999999552965164,0.3082534670829773,-0.24899697303771973,9.632472038269043,0.03999999910593033,0.0,0.0,0.0,0.03999999910593033,0.0,0.0,0.0,0.03999999910593033
1779692043256524843,419572,1779692043233887763,imu_link,-0.013176745735108852,-0.016556495800614357,0.11095225065946579,0.9935961365699768,0.0024999999441206455,0.0,0.0,0.0,0.0024999999441206455,0.0,0.0,0.0,0.0024999999441206455,0.0,0.0,0.0,0.019999999552965164,0.0,0.0,0.0,0.019999999552965164,0.0,0.0,0.0,0.019999999552965164,0.3100491166114807,-0.2561795711517334,9.640253067016602,0.03999999910593033,0.0,0.0,0.0,0.03999999910593033,0.0,0.0,0.0,0.03999999910593033
1779692043262718755,419573,1779692043238887763,imu_link,-0.013176745735108852,-0.016556495800614357,0.11095225065946579,0.9935961365699768,0.0024999999441206455,0.0,0.0,0.0,0.0024999999441206455,0.0,0.0,0.0,0.0024999999441206455,0.0,0.0,0.0,0.019999999552965164,0.0,0.0,0.0,0.019999999552965164,0.0,0.0,0.0,0.019999999552965164,0.3100491166114807,-0.2561795711517334,9.640253067016602,0.03999999910593033,0.0,0.0,0.0,0.03999999910593033,0.0,0.0,0.0,0.03999999910593033
1779692043268724536,419574,1779692043243887763,imu_link,-0.012563777156174183,-0.016977515071630478,0.1109367311000824,0.9935986995697021,0.0024999999441206455,0.0,0.0,0.0,0.0024999999441206455,0.0,0.0,0.0,0.0024999999441206455,0.0,0.0,0.0,0.019999999552965164,0.0,0.0,0.0,0.019999999552965164,0.0,0.0,0.0,0.019999999552965164,0.32441431283950806,-0.2472013235092163,9.636661529541016,0.03999999910593033,0.0,0.0,0.0,0.03999999910593033,0.0,0.0,0.0,0.03999999910593033
1779692043294639349,419575,1779692043252887763,imu_link,-0.011397798545658588,-0.016987401992082596,0.11091846227645874,0.9936146140098572,0.0024999999441206455,0.0,0.0,0.0,0.0024999999441206455,0.0,0.0,0.0,0.0024999999441206455,0.0,0.0,0.0,0.019999999552965164,0.0,0.0,0.0,0.019999999552965164,0.0,0.0,0.0,0.019999999552965164,0.30286651849746704,-0.2388216108083725,9.62947940826416,0.03999999910593033,0.0,0.0,0.0,0.03999999910593033,0.0,0.0,0.0,0.03999999910593033
1779692043320216561,419576,1779692043305887763,imu_link,-0.016202276572585106,-0.01798141561448574,0.11097904294729233,0.9935235977172852,0.0024999999441206455,0.0,0.0,0.0,0.0024999999441206455,0.0,0.0,0.0,0.0024999999441206455,0.0,0.0,0.0,0.019999999552965164,0.0,0.0,0.0,0.019999999552965164,0.0,0.0,0.0,0.019999999552965164,0.3034650683403015,-0.26815059781074524,9.671976089477539,0.03999999910593033,0.0,0.0,0.0,0.03999999910593033,0.0,0.0,0.0,0.03999999910593033
1779692043326845423,419577,1779692043308887763,imu_link,-0.01552179828286171,-0.01796651817858219,0.11096835136413574,0.9935359954833984,0.0024999999441206455,0.0,0.0,0.0,0.0024999999441206455,0.0,0.0,0.0,0.0024999999441206455,0.0,0.0,0.0,0.019999999552965164,0.0,0.0,0.0,0.019999999552965164,0.0,0.0,0.0,0.019999999552965164,0.31783026456832886,-0.25737667083740234,9.626486778259277,0.03999999910593033,0.0,0.0,0.0,0.03999999910593033,0.0,0.0,0.0,0.03999999910593033
1779692043331692878,419578,1779692043313887763,imu_link,-0.01552179828286171,-0.01796651817858219,0.11096835136413574,0.9935359954833984,0.0024999999441206455,0.0,0.0,0.0,0.0024999999441206455,0.0,0.0,0.0,0.0024999999441206455,0.0,0.0,0.0,0.019999999552965164,0.0,0.0,0.0,0.019999999552965164,0.0,0.0,0.0,0.019999999552965164,0.31783026456832886,-0.25737667083740234,9.626486778259277,0.03999999910593033,0.0,0.0,0.0,0.03999999910593033,0.0,0.0,0.0,0.03999999910593033
1779692043337184167,419579,1779692043318887763,imu_link,-0.014778784476220608,-0.017959583550691605,0.11095645278692245,0.9935487508773804,0.0024999999441206455,0.0,0.0,0.0,0.0024999999441206455,0.0,0.0,0.0,0.0024999999441206455,0.0,0.0,0.0,0.019999999552965164,0.0,0.0,0.0,0.019999999552965164,0.0,0.0,0.0,0.019999999552965164,0.3196259140968323,-0.24779987335205078,9.621698379516602,0.03999999910593033,0.0,0.0,0.0,0.03999999910593033,0.0,0.0,0.0,0.03999999910593033
1779692043342900646,419580,1779692043323887763,imu_link,-0.014038248918950558,-0.017944911494851112,0.11094466596841812,0.9935611486434937,0.0024999999441206455,0.0,0.0,0.0,0.0024999999441206455,0.0,0.0,0.0,0.0024999999441206455,0.0,0.0,0.0,0.019999999552965164,0.0,0.0,0.0,0.019999999552965164,0.0,0.0,0.0,0.019999999552965164,0.3190273642539978,-0.23582886159420013,9.59596061706543,0.03999999910593033,0.0,0.0,0.0,0.03999999910593033,0.0,0.0,0.0,0.03999999910593033
1779692043348807344,419581,1779692043330887763,imu_link,-0.0133625203743577,-0.01764415018260479,0.1109384149312973,0.9935764074325562,0.0024999999441206455,0.0,0.0,0.0,0.0024999999441206455,0.0,0.0,0.0,0.0024999999441206455,0.0,0.0,0.0,0.019999999552965164,0.0,0.0,0.0,0.019999999552965164,0.0,0.0,0.0,0.019999999552965164,0.2932896912097931,-0.24361002445220947,9.622296333312988,0.03999999910593033,0.0,0.0,0.0,0.03999999910593033,0.0,0.0,0.0,0.03999999910593033
1779692043373422804,419582,1779692043339887763,imu_link,-0.0133625203743577,-0.01764415018260479,0.1109384149312973,0.9935764074325562,0.0024999999441206455,0.0,0.0,0.0,0.0024999999441206455,0.0,0.0,0.0,0.0024999999441206455,0.0,0.0,0.0,0.019999999552965164,0.0,0.0,0.0,0.019999999552965164,0.0,0.0,0.0,0.019999999552965164,0.2932896912097931,-0.24361002445220947,9.622296333312988,0.03999999910593033,0.0,0.0,0.0,0.03999999910593033,0.0,0.0,0.0,0.03999999910593033
1779692043379910095,419583,1779692043342887763,imu_link,-0.012197894044220448,-0.01752188429236412,0.11092150956392288,0.9935954809188843,0.0024999999441206455,0.0,0.0,0.0,0.0024999999441206455,0.0,0.0,0.0,0.0024999999441206455,0.0,0.0,0.0,0.019999999552965164,0.0,0.0,0.0,0.019999999552965164,0.0,0.0,0.0,0.019999999552965164,0.30945056676864624,-0.21547815203666687,9.616909980773926,0.03999999910593033,0.0,0.0,0.0,0.03999999910593033,0.0,0.0,0.0,0.03999999910593033
1779692043403693737,419584,1779692043394887763,imu_link,-0.007383661810308695,-0.017754631116986275,0.1108396053314209,0.9936478734016418,0.0024999999441206455,0.0,0.0,0.0,0.0024999999441206455,0.0,0.0,0.0,0.0024999999441206455,0.0,0.0,0.0,0.019999999552965164,0.0,0.0,0.0,0.019999999552965164,0.0,0.0,0.0,0.019999999552965164,0.314238965511322,-0.2495955228805542,9.66419506072998,0.03999999910593033,0.0,0.0,0.0,0.03999999910593033,0.0,0.0,0.0,0.03999999910593033
1779692043410119761,419585,1779692043397887763,imu_link,-0.008064808323979378,-0.01772245392203331,0.11085133999586105,0.9936418533325195,0.0024999999441206455,0.0,0.0,0.0,0.0024999999441206455,0.0,0.0,0.0,0.0024999999441206455,0.0,0.0,0.0,0.019999999552965164,0.0,0.0,0.0,0.019999999552965164,0.0,0.0,0.0,0.019999999552965164,0.3082534670829773,-0.2759317457675934,9.61331844329834,0.03999999910593033,0.0,0.0,0.0,0.03999999910593033,0.0,0.0,0.0,0.03999999910593033
1779692043415962562,419586,1779692043402887763,imu_link,-0.008064808323979378,-0.01772245392203331,0.11085133999586105,0.9936418533325195,0.0024999999441206455,0.0,0.0,0.0,0.0024999999441206455,0.0,0.0,0.0,0.0024999999441206455,0.0,0.0,0.0,0.019999999552965164,0.0,0.0,0.0,0.019999999552965164,0.0,0.0,0.0,0.019999999552965164,0.3082534670829773,-0.2759317457675934,9.61331844329834,0.03999999910593033,0.0,0.0,0.0,0.03999999910593033,0.0,0.0,0.0,0.03999999910593033
1779692043421433145,419587,1779692043407887763,imu_link,-0.008808021433651447,-0.017714424058794975,0.1108638271689415,0.9936343431472778,0.0024999999441206455,0.0,0.0,0.0,0.0024999999441206455,0.0,0.0,0.0,0.0024999999441206455,0.0,0.0,0.0,0.019999999552965164,0.0,0.0,0.0,0.019999999552965164,0.0,0.0,0.0,0.019999999552965164,0.3124433159828186,-0.2717418968677521,9.628880500793457,0.03999999910593033,0.0,0.0,0.0,0.03999999910593033,0.0,0.0,0.0,0.03999999910593033
1779692043427306175,419588,1779692043412887763,imu_link,-0.00937484297901392,-0.017238037660717964,0.11087833344936371,0.9936359524726868,0.0024999999441206455,0.0,0.0,0.0,0.0024999999441206455,0.0,0.0,0.0,0.0024999999441206455,0.0,0.0,0.0,0.019999999552965164,0.0,0.0,0.0,0.019999999552965164,0.0,0.0,0.0,0.019999999552965164,0.2926911413669586,-0.2322375625371933,9.616311073303223,0.03999999910593033,0.0,0.0,0.0,0.03999999910593033,0.0,0.0,0.0,0.03999999910593033
1779692043433592344,419589,1779692043419887763,imu_link,-0.010113420896232128,-0.017180049791932106,0.11089083552360535,0.9936282634735107,0.0024999999441206455,0.0,0.0,0.0,0.0024999999441206455,0.0,0.0,0.0,0.0024999999441206455,0.0,0.0,0.0,0.019999999552965164,0.0,0.0,0.0,0.019999999552965164,0.0,0.0,0.0,0.019999999552965164,0.3064578175544739,-0.243011474609375,9.66958236694336,0.03999999910593033,0.0,0.0,0.0,0.03999999910593033,0.0,0.0,0.0,0.03999999910593033
1779692043457690366,419590,1779692043428887763,imu_link,-0.010113420896232128,-0.017180049791932106,0.11089083552360535,0.9936282634735107,0.0024999999441206455,0.0,0.0,0.0,0.0024999999441206455,0.0,0.0,0.0,0.0024999999441206455,0.0,0.0,0.0,0.019999999552965164,0.0,0.0,0.0,0.019999999552965164,0.0,0.0,0.0,0.019999999552965164,0.3064578175544739,-0.243011474609375,9.66958236694336,0.03999999910593033,0.0,0.0,0.0,0.03999999910593033,0.0,0.0,0.0,0.03999999910593033
1779692043464234940,419591,1779692043431887763,imu_link,-0.01128499023616314,-0.017172029241919518,0.11090955138206482,0.9936137199401855,0.0024999999441206455,0.0,0.0,0.0,0.0024999999441206455,0.0,0.0,0.0,0.0024999999441206455,0.0,0.0,0.0,0.019999999552965164,0.0,0.0,0.0,0.019999999552965164,0.0,0.0,0.0,0.019999999552965164,0.3058592677116394,-0.25318682193756104,9.662399291992188,0.03999999910593033,0.0,0.0,0.0,0.03999999910593033,0.0,0.0,0.0,0.03999999910593033
1779692043488037993,419592,1779692043476887763,imu_link,-0.0076589155942201614,-0.01522749848663807,0.11087677627801895,0.9936836957931519,0.0024999999441206455,0.0,0.0,0.0,0.0024999999441206455,0.0,0.0,0.0,0.0024999999441206455,0.0,0.0,0.0,0.019999999552965164,0.0,0.0,0.0,0.019999999552965164,0.0,0.0,0.0,0.019999999552965164,0.30047231912612915,-0.24181437492370605,9.636063575744629,0.03999999910593033,0.0,0.0,0.0,0.03999999910593033,0.0,0.0,0.0,0.03999999910593033
1779692043494885563,419593,1779692043479887763,imu_link,-0.008211247622966766,-0.01562938094139099,0.11088089644908905,0.9936725497245789,0.0024999999441206455,0.0,0.0,0.0,0.0024999999441206455,0.0,0.0,0.0,0.0024999999441206455,0.0,0.0,0.0,0.019999999552965164,0.0,0.0,0.0,0.019999999552965164,0.0,0.0,0.0,0.019999999552965164,0.3130418658256531,-0.2454056739807129,9.633668899536133,0.03999999910593033,0.0,0.0,0.0,0.03999999910593033,0.0,0.0,0.0,0.03999999910593033
1779692043500698876,419594,1779692043484887763,imu_link,-0.008211247622966766,-0.01562938094139099,0.11088089644908905,0.9936725497245789,0.0024999999441206455,0.0,0.0,0.0,0.0024999999441206455,0.0,0.0,0.0,0.0024999999441206455,0.0,0.0,0.0,0.019999999552965164,0.0,0.0,0.0,0.019999999552965164,0.0,0.0,0.0,0.019999999552965164,0.3130418658256531,-0.2454056739807129,9.633668899536133,0.03999999910593033,0.0,0.0,0.0,0.03999999910593033,0.0,0.0,0.0,0.03999999910593033
1779692043506825906,419595,1779692043489887763,imu_link,-0.008908601477742195,-0.015883786603808403,0.11088855564594269,0.9936617016792297,0.0024999999441206455,0.0,0.0,0.0,0.0024999999441206455,0.0,0.0,0.0,0.0024999999441206455,0.0,0.0,0.0,0.019999999552965164,0.0,0.0,0.0,0.019999999552965164,0.0,0.0,0.0,0.019999999552965164,0.29628247022628784,-0.2513911724090576,9.618704795837402,0.03999999910593033,0.0,0.0,0.0,0.03999999910593033,0.0,0.0,0.0,0.03999999910593033
