%time,field.header.seq,field.header.stamp,field.header.frame_id,field.orientation.x,field.orientation.y,field.orientation.z,field.orientation.w,field.orientation_covariance0,field.orientation_covariance1,field.orientation_covariance2,field.orientation_covariance3,field.orientation_covariance4,field.orientation_covariance5,field.orientation_covariance6,field.orientation_covariance7,field.orientation_covariance8,field.angular_velocity.x,field.angular_velocity.y,field.angular_velocity.z,field.angular_velocity_covariance0,field.angular_velocity_covariance1,field.angular_velocity_covariance2,field.angular_velocity_covariance3,field.angular_velocity_covariance4,field.angular_velocity_covariance5,field.angular_velocity_covariance6,field.angular_velocity_covariance7,field.angular_velocity_covariance8,field.linear_acceleration.x,field.linear_acceleration.y,field.linear_acceleration.z,field.linear_acceleration_covariance0,field.linear_acceleration_covariance1,field.linear_acceleration_covariance2,field.linear_acceleration_covariance3,field.linear_acceleration_covariance4,field.linear_acceleration_covariance5,field.linear_acceleration_covariance6,field.linear_acceleration_covariance7,field.linear_acceleration_covariance8
1779682682915676378,857103,1779682682767441215,imu_link,0.007139289285987616,-0.012002626433968544,0.554095983505249,0.8323305249214172,0.0024999999441206455,0.0,0.0,0.0,0.0024999999441206455,0.0,0.0,0.0,0.0024999999441206455,0.0,0.0,0.0,0.019999999552965164,0.0,0.0,0.0,0.019999999552965164,0.0,0.0,0.0,0.019999999552965164,0.16819266974925995,0.013766659423708916,9.63067626953125,0.03999999910593033,0.0,0.0,0.0,0.03999999910593033,0.0,0.0,0.0,0.03999999910593033
1779682682915728157,857104,1779682682769441215,imu_link,0.006969952955842018,-0.01133713312447071,0.5540986657142639,0.8323394656181335,0.0024999999441206455,0.0,0.0,0.0,0.0024999999441206455,0.0,0.0,0.0,0.0024999999441206455,0.0,0.0,0.0,0.019999999552965164,0.0,0.0,0.0,0.019999999552965164,0.0,0.0,0.0,0.019999999552965164,0.1562216579914093,0.025737667456269264,9.610923767089844,0.03999999910593033,0.0,0.0,0.0,0.03999999910593033,0.0,0.0,0.0,0.03999999910593033
1779682682915748005,857105,1779682682774441215,imu_link,0.00682572228834033,-0.010858181864023209,0.554100751876831,0.8323456645011902,0.0024999999441206455,0.0,0.0,0.0,0.0024999999441206455,0.0,0.0,0.0,0.0024999999441206455,0.0,0.0,0.0,0.019999999552965164,0.0,0.0,0.0,0.019999999552965164,0.0,0.0,0.0,0.019999999552965164,0.1604115068912506,0.01975216343998909,9.619303703308105,0.03999999910593033,0.0,0.0,0.0,0.03999999910593033,0.0,0.0,0.0,0.03999999910593033
1779682682915763869,857106,1779682682779441215,imu_link,0.00682572228834033,-0.010858181864023209,0.554100751876831,0.8323456645011902,0.0024999999441206455,0.0,0.0,0.0,0.0024999999441206455,0.0,0.0,0.0,0.0024999999441206455,0.0,0.0,0.0,0.019999999552965164,0.0,0.0,0.0,0.019999999552965164,0.0,0.0,0.0,0.019999999552965164,0.1604115068912506,0.01975216343998909,9.619303703308105,0.03999999910593033,0.0,0.0,0.0,0.03999999910593033,0.0,0.0,0.0,0.03999999910593033
1779682682915785194,857107,1779682682784441215,imu_link,0.006504488177597523,-0.01018365379422903,0.5541049242019653,0.8323538899421692,0.0024999999441206455,0.0,0.0,0.0,0.0024999999441206455,0.0,0.0,0.0,0.0024999999441206455,0.0,0.0,0.0,0.019999999552965164,0.0,0.0,0.0,0.019999999552965164,0.0,0.0,0.0,0.019999999552965164,0.16879121959209442,0.004788403399288654,9.62947940826416,0.03999999910593033,0.0,0.0,0.0,0.03999999910593033,0.0,0.0,0.0,0.03999999910593033
1779682682915795872,857108,1779682682789441215,imu_link,0.00639306427910924,-0.009451604448258877,0.5541062951087952,0.8323624730110168,0.0024999999441206455,0.0,0.0,0.0,0.0024999999441206455,0.0,0.0,0.0,0.0024999999441206455,0.0,0.0,0.0,0.019999999552965164,0.0,0.0,0.0,0.019999999552965164,0.0,0.0,0.0,0.019999999552965164,0.1586158573627472,0.030526071786880493,9.66539192199707,0.03999999910593033,0.0,0.0,0.0,0.03999999910593033,0.0,0.0,0.0,0.03999999910593033
1779682682915811894,857109,1779682682794441215,imu_link,0.00639306427910924,-0.009451604448258877,0.5541062951087952,0.8323624730110168,0.0024999999441206455,0.0,0.0,0.0,0.0024999999441206455,0.0,0.0,0.0,0.0024999999441206455,0.0,0.0,0.0,0.019999999552965164,0.0,0.0,0.0,0.019999999552965164,0.0,0.0,0.0,0.019999999552965164,0.1586158573627472,0.030526071786880493,9.66539192199707,0.03999999910593033,0.0,0.0,0.0,0.03999999910593033,0.0,0.0,0.0,0.03999999910593033
1779682682915825508,857110,1779682682804441215,imu_link,0.005763820838183165,-0.008211781270802021,0.5541126728057861,0.8323760628700256,0.0024999999441206455,0.0,0.0,0.0,0.0024999999441206455,0.0,0.0,0.0,0.0024999999441206455,0.0,0.0,0.0,0.019999999552965164,0.0,0.0,0.0,0.019999999552965164,0.0,0.0,0.0,0.019999999552965164,0.15083470940589905,0.0,9.620500564575195,0.03999999910593033,0.0,0.0,0.0,0.03999999910593033,0.0,0.0,0.0,0.03999999910593033
1779682682915839168,857111,1779682682853441215,imu_link,0.007579185999929905,-0.004093276336789131,0.5540878176689148,0.8324084877967834,0.0024999999441206455,0.0,0.0,0.0,0.0024999999441206455,0.0,0.0,0.0,0.0024999999441206455,0.0,0.0,0.0,0.019999999552965164,0.0,0.0,0.0,0.019999999552965164,0.0,0.0,0.0,0.019999999552965164,0.1843535304069519,0.019153613597154617,9.64683723449707,0.03999999910593033,0.0,0.0,0.0,0.03999999910593033,0.0,0.0,0.0,0.03999999910593033
1779682682915853972,857112,1779682682855441215,imu_link,0.007391517050564289,-0.004754216410219669,0.55409175157547,0.8324039578437805,0.0024999999441206455,0.0,0.0,0.0,0.0024999999441206455,0.0,0.0,0.0,0.0024999999441206455,0.0,0.0,0.0,0.019999999552965164,0.0,0.0,0.0,0.019999999552965164,0.0,0.0,0.0,0.019999999552965164,0.19871874153614044,0.01735796220600605,9.654019355773926,0.03999999910593033,0.0,0.0,0.0,0.03999999910593033,0.0,0.0,0.0,0.03999999910593033
1779682682915867646,857113,1779682682860441215,imu_link,0.007391517050564289,-0.004754216410219669,0.55409175157547,0.8324039578437805,0.0024999999441206455,0.0,0.0,0.0,0.0024999999441206455,0.0,0.0,0.0,0.0024999999441206455,0.0,0.0,0.0,0.019999999552965164,0.0,0.0,0.0,0.019999999552965164,0.0,0.0,0.0,0.019999999552965164,0.19871874153614044,0.01735796220600605,9.654019355773926,0.03999999910593033,0.0,0.0,0.0,0.03999999910593033,0.0,0.0,0.0,0.03999999910593033
1779682682915890555,857114,1779682682865441215,imu_link,0.006949951872229576,-0.005356327630579472,0.5540974140167236,0.8324005603790283,0.0024999999441206455,0.0,0.0,0.0,0.0024999999441206455,0.0,0.0,0.0,0.0024999999441206455,0.0,0.0,0.0,0.019999999552965164,0.0,0.0,0.0,0.019999999552965164,0.0,0.0,0.0,0.019999999552965164,0.16879121959209442,0.028131868690252304,9.585186004638672,0.03999999910593033,0.0,0.0,0.0,0.03999999910593033,0.0,0.0,0.0,0.03999999910593033
1779682682915906929,857115,1779682682870441215,imu_link,0.006474459543824196,-0.005923176184296608,0.5541027188301086,0.8323968648910522,0.0024999999441206455,0.0,0.0,0.0,0.0024999999441206455,0.0,0.0,0.0,0.0024999999441206455,0.0,0.0,0.0,0.019999999552965164,0.0,0.0,0.0,0.019999999552965164,0.0,0.0,0.0,0.019999999552965164,0.17238251864910126,0.014365210197865963,9.66299819946289,0.03999999910593033,0.0,0.0,0.0,0.03999999910593033,0.0,0.0,0.0,0.03999999910593033
1779682682915915543,857116,1779682682875441215,imu_link,0.006474459543824196,-0.005923176184296608,0.5541027188301086,0.8323968648910522,0.0024999999441206455,0.0,0.0,0.0,0.0024999999441206455,0.0,0.0,0.0,0.0024999999441206455,0.0,0.0,0.0,0.019999999552965164,0.0,0.0,0.0,0.019999999552965164,0.0,0.0,0.0,0.019999999552965164,0.17238251864910126,0.014365210197865963,9.66299819946289,0.03999999910593033,0.0,0.0,0.0,0.03999999910593033,0.0,0.0,0.0,0.03999999910593033
1779682682915943984,857117,1779682682880441215,imu_link,0.005965968128293753,-0.006467618513852358,0.5541080236434937,0.8323930501937866,0.0024999999441206455,0.0,0.0,0.0,0.0024999999441206455,0.0,0.0,0.0,0.0024999999441206455,0.0,0.0,0.0,0.019999999552965164,0.0,0.0,0.0,0.019999999552965164,0.0,0.0,0.0,0.019999999552965164,0.1693897694349289,0.019153613597154617,9.643245697021484,0.03999999910593033,0.0,0.0,0.0,0.03999999910593033,0.0,0.0,0.0,0.03999999910593033
1779682682931790189,857118,1779682682889441215,imu_link,0.0048362258821725845,-0.006146673113107681,0.55411696434021,0.8323968052864075,0.0024999999441206455,0.0,0.0,0.0,0.0024999999441206455,0.0,0.0,0.0,0.0024999999441206455,0.0,0.0,0.0,0.019999999552965164,0.0,0.0,0.0,0.019999999552965164,0.0,0.0,0.0,0.019999999552965164,0.16400282084941864,0.023942016065120697,9.61331844329834,0.03999999910593033,0.0,0.0,0.0,0.03999999910593033,0.0,0.0,0.0,0.03999999910593033
1779682682952472420,857119,1779682682945441215,imu_link,0.00986448209732771,-0.007026469334959984,0.5540711283683777,0.8323760628700256,0.0024999999441206455,0.0,0.0,0.0,0.0024999999441206455,0.0,0.0,0.0,0.0024999999441206455,0.0,0.0,0.0,0.019999999552965164,0.0,0.0,0.0,0.019999999552965164,0.0,0.0,0.0,0.019999999552965164,0.16519992053508759,0.028131868690252304,9.603142738342285,0.03999999910593033,0.0,0.0,0.0,0.03999999910593033,0.0,0.0,0.0,0.03999999910593033
1779682682960548061,857120,1779682682947441215,imu_link,0.009177997708320618,-0.006969922222197056,0.5540785193443298,0.8323794007301331,0.0024999999441206455,0.0,0.0,0.0,0.0024999999441206455,0.0,0.0,0.0,0.0024999999441206455,0.0,0.0,0.0,0.019999999552965164,0.0,0.0,0.0,0.019999999552965164,0.0,0.0,0.0,0.019999999552965164,0.1735796183347702,0.025737667456269264,9.698312759399414,0.03999999910593033,0.0,0.0,0.0,0.03999999910593033,0.0,0.0,0.0,0.03999999910593033
1779682682965249323,857121,1779682682952441215,imu_link,0.008682580664753914,-0.007038960233330727,0.5540841221809387,0.832380473613739,0.0024999999441206455,0.0,0.0,0.0,0.0024999999441206455,0.0,0.0,0.0,0.0024999999441206455,0.0,0.0,0.0,0.019999999552965164,0.0,0.0,0.0,0.019999999552965164,0.0,0.0,0.0,0.019999999552965164,0.1885433793067932,0.02693476900458336,9.679159164428711,0.03999999910593033,0.0,0.0,0.0,0.03999999910593033,0.0,0.0,0.0,0.03999999910593033
1779682682977492118,857122,1779682682957441215,imu_link,0.008682580664753914,-0.007038960233330727,0.5540841221809387,0.832380473613739,0.0024999999441206455,0.0,0.0,0.0,0.0024999999441206455,0.0,0.0,0.0,0.0024999999441206455,0.0,0.0,0.0,0.019999999552965164,0.0,0.0,0.0,0.019999999552965164,0.0,0.0,0.0,0.019999999552965164,0.1885433793067932,0.02693476900458336,9.679159164428711,0.03999999910593033,0.0,0.0,0.0,0.03999999910593033,0.0,0.0,0.0,0.03999999910593033
1779682682982520833,857123,1779682682962441215,imu_link,0.007957537658512592,-0.007214940618723631,0.554092288017273,0.8323807716369629,0.0024999999441206455,0.0,0.0,0.0,0.0024999999441206455,0.0,0.0,0.0,0.0024999999441206455,0.0,0.0,0.0,0.019999999552965164,0.0,0.0,0.0,0.019999999552965164,0.0,0.0,0.0,0.019999999552965164,0.18136078119277954,-0.002394201699644327,9.631275177001953,0.03999999910593033,0.0,0.0,0.0,0.03999999910593033,0.0,0.0,0.0,0.03999999910593033
1779682682989678864,857124,1779682682967441215,imu_link,0.007538984529674053,-0.00694167148321867,0.5540959239006042,0.8323845863342285,0.0024999999441206455,0.0,0.0,0.0,0.0024999999441206455,0.0,0.0,0.0,0.0024999999441206455,0.0,0.0,0.0,0.019999999552965164,0.0,0.0,0.0,0.019999999552965164,0.0,0.0,0.0,0.019999999552965164,0.1735796183347702,0.03890577703714371,9.652223587036133,0.03999999910593033,0.0,0.0,0.0,0.03999999910593033,0.0,0.0,0.0,0.03999999910593033
1779682682996292657,857125,1779682682972441215,imu_link,0.006982784252613783,-0.007430620491504669,0.5541024804115295,0.8323808312416077,0.0024999999441206455,0.0,0.0,0.0,0.0024999999441206455,0.0,0.0,0.0,0.0024999999441206455,0.0,0.0,0.0,0.019999999552965164,0.0,0.0,0.0,0.019999999552965164,0.0,0.0,0.0,0.019999999552965164,0.19572599232196808,0.012569558806717396,9.597755432128906,0.03999999910593033,0.0,0.0,0.0,0.03999999910593033,0.0,0.0,0.0,0.03999999910593033
1779682683017404545,857126,1779682682982441215,imu_link,0.006280574947595596,-0.008034642785787582,0.5541103482246399,0.8323756456375122,0.0024999999441206455,0.0,0.0,0.0,0.0024999999441206455,0.0,0.0,0.0,0.0024999999441206455,0.0,0.0,0.0,0.019999999552965164,0.0,0.0,0.0,0.019999999552965164,0.0,0.0,0.0,0.019999999552965164,0.19812019169330597,-0.002992752008140087,9.631275177001953,0.03999999910593033,0.0,0.0,0.0,0.03999999910593033,0.0,0.0,0.0,0.03999999910593033
1779682683038905318,857127,1779682683032441215,imu_link,0.0058521609753370285,-0.0034580675419420004,0.554105281829834,0.8324136734008789,0.0024999999441206455,0.0,0.0,0.0,0.0024999999441206455,0.0,0.0,0.0,0.0024999999441206455,0.0,0.0,0.0,0.019999999552965164,0.0,0.0,0.0,0.019999999552965164,0.0,0.0,0.0,0.019999999552965164,0.15682020783424377,0.035913024097681046,9.625288963317871,0.03999999910593033,0.0,0.0,0.0,0.03999999910593033,0.0,0.0,0.0,0.03999999910593033
1779682683044466690,857128,1779682683034441215,imu_link,0.005806568078696728,-0.004140311386436224,0.5541074275970459,0.8324094414710999,0.0024999999441206455,0.0,0.0,0.0,0.0024999999441206455,0.0,0.0,0.0,0.0024999999441206455,0.0,0.0,0.0,0.019999999552965164,0.0,0.0,0.0,0.019999999552965164,0.0,0.0,0.0,0.019999999552965164,0.15442600846290588,0.028730420395731926,9.616909980773926,0.03999999910593033,0.0,0.0,0.0,0.03999999910593033,0.0,0.0,0.0,0.03999999910593033
1779682683049914061,857129,1779682683039441215,imu_link,0.005806568078696728,-0.004140311386436224,0.5541074275970459,0.8324094414710999,0.0024999999441206455,0.0,0.0,0.0,0.0024999999441206455,0.0,0.0,0.0,0.0024999999441206455,0.0,0.0,0.0,0.019999999552965164,0.0,0.0,0.0,0.019999999552965164,0.0,0.0,0.0,0.019999999552965164,0.15442600846290588,0.028730420395731926,9.616909980773926,0.03999999910593033,0.0,0.0,0.0,0.03999999910593033,0.0,0.0,0.0,0.03999999910593033
1779682683055838886,857130,1779682683044441215,imu_link,0.005911407992243767,-0.004877531435340643,0.5541084408760071,0.8324039578437805,0.0024999999441206455,0.0,0.0,0.0,0.0024999999441206455,0.0,0.0,0.0,0.0024999999441206455,0.0,0.0,0.0,0.019999999552965164,0.0,0.0,0.0,0.019999999552965164,0.0,0.0,0.0,0.019999999552965164,0.1604115068912506,0.033518824726343155,9.624092102050781,0.03999999910593033,0.0,0.0,0.0,0.03999999910593033,0.0,0.0,0.0,0.03999999910593033
1779682683061352587,857131,1779682683049441215,imu_link,0.005601147655397654,-0.00554744154214859,0.5541120767593384,0.8323995471000671,0.0024999999441206455,0.0,0.0,0.0,0.0024999999441206455,0.0,0.0,0.0,0.0024999999441206455,0.0,0.0,0.0,0.019999999552965164,0.0,0.0,0.0,0.019999999552965164,0.0,0.0,0.0,0.019999999552965164,0.1586158573627472,0.014963760040700436,9.647435188293457,0.03999999910593033,0.0,0.0,0.0,0.03999999910593033,0.0,0.0,0.0,0.03999999910593033
1779682683066842262,857132,1779682683054441215,imu_link,0.005601147655397654,-0.00554744154214859,0.5541120767593384,0.8323995471000671,0.0024999999441206455,0.0,0.0,0.0,0.0024999999441206455,0.0,0.0,0.0,0.0024999999441206455,0.0,0.0,0.0,0.019999999552965164,0.0,0.0,0.0,0.019999999552965164,0.0,0.0,0.0,0.019999999552965164,0.1586158573627472,0.014963760040700436,9.647435188293457,0.03999999910593033,0.0,0.0,0.0,0.03999999910593033,0.0,0.0,0.0,0.03999999910593033
1779682683072497477,857133,1779682683059441215,imu_link,0.005373919848352671,-0.006259412970393896,0.554114818572998,0.8323942422866821,0.0024999999441206455,0.0,0.0,0.0,0.0024999999441206455,0.0,0.0,0.0,0.0024999999441206455,0.0,0.0,0.0,0.019999999552965164,0.0,0.0,0.0,0.019999999552965164,0.0,0.0,0.0,0.019999999552965164,0.17417816817760468,-0.0005985504249110818,9.657610893249512,0.03999999910593033,0.0,0.0,0.0,0.03999999910593033,0.0,0.0,0.0,0.03999999910593033
1779682683100364183,857134,1779682683068441215,imu_link,0.005514450371265411,-0.007423688191920519,0.5541144609451294,0.8323839902877808,0.0024999999441206455,0.0,0.0,0.0,0.0024999999441206455,0.0,0.0,0.0,0.0024999999441206455,0.0,0.0,0.0,0.019999999552965164,0.0,0.0,0.0,0.019999999552965164,0.0,0.0,0.0,0.019999999552965164,0.1759738177061081,0.010175356641411781,9.632472038269043,0.03999999910593033,0.0,0.0,0.0,0.03999999910593033,0.0,0.0,0.0,0.03999999910593033
1779682683106141178,857135,1779682683073441215,imu_link,0.005514450371265411,-0.007423688191920519,0.5541144609451294,0.8323839902877808,0.0024999999441206455,0.0,0.0,0.0,0.0024999999441206455,0.0,0.0,0.0,0.0024999999441206455,0.0,0.0,0.0,0.019999999552965164,0.0,0.0,0.0,0.019999999552965164,0.0,0.0,0.0,0.019999999552965164,0.1759738177061081,0.010175356641411781,9.632472038269043,0.03999999910593033,0.0,0.0,0.0,0.03999999910593033,0.0,0.0,0.0,0.03999999910593033
1779682683127766677,857136,1779682683114441215,imu_link,0.006471273954957724,-0.0034240989480167627,0.5540990233421326,0.832413375377655,0.0024999999441206455,0.0,0.0,0.0,0.0024999999441206455,0.0,0.0,0.0,0.0024999999441206455,0.0,0.0,0.0,0.019999999552965164,0.0,0.0,0.0,0.019999999552965164,0.0,0.0,0.0,0.019999999552965164,0.15981295704841614,0.0293289702385664,9.66299819946289,0.03999999910593033,0.0,0.0,0.0,0.03999999910593033,0.0,0.0,0.0,0.03999999910593033
1779682683133532791,857137,1779682683116441215,imu_link,0.0063142115250229836,-0.004090615548193455,0.5541021823883057,0.8324093818664551,0.0024999999441206455,0.0,0.0,0.0,0.0024999999441206455,0.0,0.0,0.0,0.0024999999441206455,0.0,0.0,0.0,0.019999999552965164,0.0,0.0,0.0,0.019999999552965164,0.0,0.0,0.0,0.019999999552965164,0.17537526786327362,0.011971008032560349,9.61571216583252,0.03999999910593033,0.0,0.0,0.0,0.03999999910593033,0.0,0.0,0.0,0.03999999910593033
1779682683138996881,857138,1779682683121441215,imu_link,0.0063142115250229836,-0.004090615548193455,0.5541021823883057,0.8324093818664551,0.0024999999441206455,0.0,0.0,0.0,0.0024999999441206455,0.0,0.0,0.0,0.0024999999441206455,0.0,0.0,0.0,0.019999999552965164,0.0,0.0,0.0,0.019999999552965164,0.0,0.0,0.0,0.019999999552965164,0.17537526786327362,0.011971008032560349,9.61571216583252,0.03999999910593033,0.0,0.0,0.0,0.03999999910593033,0.0,0.0,0.0,0.03999999910593033
1779682683144535704,857139,1779682683126441215,imu_link,0.006258332170546055,-0.004832466598600149,0.5541046857833862,0.8324043154716492,0.0024999999441206455,0.0,0.0,0.0,0.0024999999441206455,0.0,0.0,0.0,0.0024999999441206455,0.0,0.0,0.0,0.019999999552965164,0.0,0.0,0.0,0.019999999552965164,0.0,0.0,0.0,0.019999999552965164,0.17298106849193573,0.02693476900458336,9.66299819946289,0.03999999910593033,0.0,0.0,0.0,0.03999999910593033,0.0,0.0,0.0,0.03999999910593033
1779682683150268786,857140,1779682683131441215,imu_link,0.006168179214000702,-0.005565993953496218,0.5541070699691772,0.8323988318443298,0.0024999999441206455,0.0,0.0,0.0,0.0024999999441206455,0.0,0.0,0.0,0.0024999999441206455,0.0,0.0,0.0,0.019999999552965164,0.0,0.0,0.0,0.019999999552965164,0.0,0.0,0.0,0.019999999552965164,0.1586158573627472,0.035913024097681046,9.5995512008667,0.03999999910593033,0.0,0.0,0.0,0.03999999910593033,0.0,0.0,0.0,0.03999999910593033
1779682683156213152,857141,1779682683136441215,imu_link,0.006168179214000702,-0.005565993953496218,0.5541070699691772,0.8323988318443298,0.0024999999441206455,0.0,0.0,0.0,0.0024999999441206455,0.0,0.0,0.0,0.0024999999441206455,0.0,0.0,0.0,0.019999999552965164,0.0,0.0,0.0,0.019999999552965164,0.0,0.0,0.0,0.019999999552965164,0.1586158573627472,0.035913024097681046,9.5995512008667,0.03999999910593033,0.0,0.0,0.0,0.03999999910593033,0.0,0.0,0.0,0.03999999910593033
1779682683161878422,857142,1779682683141441215,imu_link,0.006189176347106695,-0.006312614306807518,0.5541082620620728,0.8323925137519836,0.0024999999441206455,0.0,0.0,0.0,0.0024999999441206455,0.0,0.0,0.0,0.0024999999441206455,0.0,0.0,0.0,0.019999999552965164,0.0,0.0,0.0,0.019999999552965164,0.0,0.0,0.0,0.019999999552965164,0.17896656692028046,0.02454056777060032,9.62947940826416,0.03999999910593033,0.0,0.0,0.0,0.03999999910593033,0.0,0.0,0.0,0.03999999910593033
1779682683184604439,857143,1779682683150441215,imu_link,0.005699123255908489,-0.005634448491036892,0.5541114807128906,0.8323987722396851,0.0024999999441206455,0.0,0.0,0.0,0.0024999999441206455,0.0,0.0,0.0,0.0024999999441206455,0.0,0.0,0.0,0.019999999552965164,0.0,0.0,0.0,0.019999999552965164,0.0,0.0,0.0,0.019999999552965164,0.15682020783424377,0.02693476900458336,9.5995512008667,0.03999999910593033,0.0,0.0,0.0,0.03999999910593033,0.0,0.0,0.0,0.03999999910593033
1779682683207057106,857144,1779682683198441215,imu_link,0.005370297469198704,-0.009922309778630733,0.554115891456604,0.8323579430580139,0.0024999999441206455,0.0,0.0,0.0,0.0024999999441206455,0.0,0.0,0.0,0.0024999999441206455,0.0,0.0,0.0,0.019999999552965164,0.0,0.0,0.0,0.019999999552965164,0.0,0.0,0.0,0.019999999552965164,0.166995570063591,0.019153613597154617,9.648633003234863,0.03999999910593033,0.0,0.0,0.0,0.03999999910593033,0.0,0.0,0.0,0.03999999910593033
1779682683213069845,857145,1779682683200441215,imu_link,0.0055214883759617805,-0.009254750795662403,0.5541147589683533,0.8323654532432556,0.0024999999441206455,0.0,0.0,0.0,0.0024999999441206455,0.0,0.0,0.0,0.0024999999441206455,0.0,0.0,0.0,0.019999999552965164,0.0,0.0,0.0,0.019999999552965164,0.0,0.0,0.0,0.019999999552965164,0.18136078119277954,0.01735796220600605,9.645041465759277,0.03999999910593033,0.0,0.0,0.0,0.03999999910593033,0.0,0.0,0.0,0.03999999910593033
1779682683218679038,857146,1779682683205441215,imu_link,0.005689339246600866,-0.008782569319009781,0.5541130900382996,0.8323704600334167,0.0024999999441206455,0.0,0.0,0.0,0.0024999999441206455,0.0,0.0,0.0,0.0024999999441206455,0.0,0.0,0.0,0.019999999552965164,0.0,0.0,0.0,0.019999999552965164,0.0,0.0,0.0,0.019999999552965164,0.17417816817760468,0.0347159244120121,9.652223587036133,0.03999999910593033,0.0,0.0,0.0,0.03999999910593033,0.0,0.0,0.0,0.03999999910593033
1779682683224062683,857147,1779682683210441215,imu_link,0.005689339246600866,-0.008782569319009781,0.5541130900382996,0.8323704600334167,0.0024999999441206455,0.0,0.0,0.0,0.0024999999441206455,0.0,0.0,0.0,0.0024999999441206455,0.0,0.0,0.0,0.019999999552965164,0.0,0.0,0.0,0.019999999552965164,0.0,0.0,0.0,0.019999999552965164,0.17417816817760468,0.0347159244120121,9.652223587036133,0.03999999910593033,0.0,0.0,0.0,0.03999999910593033,0.0,0.0,0.0,0.03999999910593033
1779682683229464200,857148,1779682683215441215,imu_link,0.006185061763972044,-0.008226100355386734,0.5541077852249146,0.8323760628700256,0.0024999999441206455,0.0,0.0,0.0,0.0024999999441206455,0.0,0.0,0.0,0.0024999999441206455,0.0,0.0,0.0,0.019999999552965164,0.0,0.0,0.0,0.019999999552965164,0.0,0.0,0.0,0.019999999552965164,0.1951274424791336,0.023942016065120697,9.653421401977539,0.03999999910593033,0.0,0.0,0.0,0.03999999910593033,0.0,0.0,0.0,0.03999999910593033
1779682683234950741,857149,1779682683220441215,imu_link,0.0057626706548035145,-0.007620787248015404,0.554111659526825,0.8323822617530823,0.0024999999441206455,0.0,0.0,0.0,0.0024999999441206455,0.0,0.0,0.0,0.0024999999441206455,0.0,0.0,0.0,0.019999999552965164,0.0,0.0,0.0,0.019999999552965164,0.0,0.0,0.0,0.019999999552965164,0.17058686912059784,0.010773907415568829,9.636661529541016,0.03999999910593033,0.0,0.0,0.0,0.03999999910593033,0.0,0.0,0.0,0.03999999910593033
1779682683241000468,857150,1779682683225441215,imu_link,0.0057626706548035145,-0.007620787248015404,0.554111659526825,0.8323822617530823,0.0024999999441206455,0.0,0.0,0.0,0.0024999999441206455,0.0,0.0,0.0,0.0024999999441206455,0.0,0.0,0.0,0.019999999552965164,0.0,0.0,0.0,0.019999999552965164,0.0,0.0,0.0,0.019999999552965164,0.17058686912059784,0.010773907415568829,9.636661529541016,0.03999999910593033,0.0,0.0,0.0,0.03999999910593033,0.0,0.0,0.0,0.03999999910593033
1779682683263543901,857151,1779682683235441215,imu_link,0.005436568986624479,-0.006662597879767418,0.554113507270813,0.8323914408683777,0.0024999999441206455,0.0,0.0,0.0,0.0024999999441206455,0.0,0.0,0.0,0.0024999999441206455,0.0,0.0,0.0,0.019999999552965164,0.0,0.0,0.0,0.019999999552965164,0.0,0.0,0.0,0.019999999552965164,0.16998831927776337,0.019153613597154617,9.650428771972656,0.03999999910593033,0.0,0.0,0.0,0.03999999910593033,0.0,0.0,0.0,0.03999999910593033
1779682683269215902,857152,1779682683239441215,imu_link,0.005436568986624479,-0.006662597879767418,0.554113507270813,0.8323914408683777,0.0024999999441206455,0.0,0.0,0.0,0.0024999999441206455,0.0,0.0,0.0,0.0024999999441206455,0.0,0.0,0.0,0.019999999552965164,0.0,0.0,0.0,0.019999999552965164,0.0,0.0,0.0,0.019999999552965164,0.16998831927776337,0.019153613597154617,9.650428771972656,0.03999999910593033,0.0,0.0,0.0,0.03999999910593033,0.0,0.0,0.0,0.03999999910593033
1779682683290526763,857153,1779682683279441215,imu_link,0.0051360647194087505,-0.010650749318301678,0.5541150569915771,0.8323509693145752,0.0024999999441206455,0.0,0.0,0.0,0.0024999999441206455,0.0,0.0,0.0,0.0024999999441206455,0.0,0.0,0.0,0.019999999552965164,0.0,0.0,0.0,0.019999999552965164,0.0,0.0,0.0,0.019999999552965164,0.17956513166427612,0.004189853090792894,9.603741645812988,0.03999999910593033,0.0,0.0,0.0,0.03999999910593033,0.0,0.0,0.0,0.03999999910593033
1779682683296210223,857154,1779682683281441215,imu_link,0.005122624337673187,-0.00995277613401413,0.5541161894798279,0.8323588967323303,0.0024999999441206455,0.0,0.0,0.0,0.0024999999441206455,0.0,0.0,0.0,0.0024999999441206455,0.0,0.0,0.0,0.019999999552965164,0.0,0.0,0.0,0.019999999552965164,0.0,0.0,0.0,0.019999999552965164,0.15981295704841614,0.010773907415568829,9.640253067016602,0.03999999910593033,0.0,0.0,0.0,0.03999999910593033,0.0,0.0,0.0,0.03999999910593033
1779682683301560962,857155,1779682683286441215,imu_link,0.0052658249624073505,-0.009472877718508244,0.5541151165962219,0.8323643803596497,0.0024999999441206455,0.0,0.0,0.0,0.0024999999441206455,0.0,0.0,0.0,0.0024999999441206455,0.0,0.0,0.0,0.019999999552965164,0.0,0.0,0.0,0.019999999552965164,0.0,0.0,0.0,0.019999999552965164,0.17238251864910126,0.026336219161748886,9.63187313079834,0.03999999910593033,0.0,0.0,0.0,0.03999999910593033,0.0,0.0,0.0,0.03999999910593033
1779682683307048055,857156,1779682683292441215,imu_link,0.00531179690733552,-0.008975100703537464,0.5541149377822876,0.8323696255683899,0.0024999999441206455,0.0,0.0,0.0,0.0024999999441206455,0.0,0.0,0.0,0.0024999999441206455,0.0,0.0,0.0,0.019999999552965164,0.0,0.0,0.0,0.019999999552965164,0.0,0.0,0.0,0.019999999552965164,0.15143325924873352,0.028730420395731926,9.607333183288574,0.03999999910593033,0.0,0.0,0.0,0.03999999910593033,0.0,0.0,0.0,0.03999999910593033
1779682683312983941,857157,1779682683296441215,imu_link,0.00531179690733552,-0.008975100703537464,0.5541149377822876,0.8323696255683899,0.0024999999441206455,0.0,0.0,0.0,0.0024999999441206455,0.0,0.0,0.0,0.0024999999441206455,0.0,0.0,0.0,0.019999999552965164,0.0,0.0,0.0,0.019999999552965164,0.0,0.0,0.0,0.019999999552965164,0.15143325924873352,0.028730420395731926,9.607333183288574,0.03999999910593033,0.0,0.0,0.0,0.03999999910593033,0.0,0.0,0.0,0.03999999910593033
1779682683319100544,857158,1779682683301441215,imu_link,0.005387527402490377,-0.008231583051383495,0.5541144013404846,0.8323771357536316,0.0024999999441206455,0.0,0.0,0.0,0.0024999999441206455,0.0,0.0,0.0,0.0024999999441206455,0.0,0.0,0.0,0.019999999552965164,0.0,0.0,0.0,0.019999999552965164,0.0,0.0,0.0,0.019999999552965164,0.14604629576206207,0.0347159244120121,9.656414031982422,0.03999999910593033,0.0,0.0,0.0,0.03999999910593033,0.0,0.0,0.0,0.03999999910593033
1779682683324978286,857159,1779682683306441215,imu_link,0.005631833802908659,-0.007794808596372604,0.5541120171546936,0.8323814272880554,0.0024999999441206455,0.0,0.0,0.0,0.0024999999441206455,0.0,0.0,0.0,0.0024999999441206455,0.0,0.0,0.0,0.019999999552965164,0.0,0.0,0.0,0.019999999552965164,0.0,0.0,0.0,0.019999999552965164,0.1711854189634323,0.03531447425484657,9.657610893249512,0.03999999910593033,0.0,0.0,0.0,0.03999999910593033,0.0,0.0,0.0,0.03999999910593033
1779682683365260624,857160,1779682683357441215,imu_link,0.006133733782917261,-0.002970806322991848,0.5540988445281982,0.8324177265167236,0.0024999999441206455,0.0,0.0,0.0,0.0024999999441206455,0.0,0.0,0.0,0.0024999999441206455,0.0,0.0,0.0,0.019999999552965164,0.0,0.0,0.0,0.019999999552965164,0.0,0.0,0.0,0.019999999552965164,0.16400282084941864,0.023942016065120697,9.593565940856934,0.03999999910593033,0.0,0.0,0.0,0.03999999910593033,0.0,0.0,0.0,0.03999999910593033
1779682683371274049,857161,1779682683359441215,imu_link,0.00599575275555253,-0.003641641465947032,0.5541018843650818,0.8324141502380371,0.0024999999441206455,0.0,0.0,0.0,0.0024999999441206455,0.0,0.0,0.0,0.0024999999441206455,0.0,0.0,0.0,0.019999999552965164,0.0,0.0,0.0,0.019999999552965164,0.0,0.0,0.0,0.019999999552965164,0.16220715641975403,0.01735796220600605,9.64564037322998,0.03999999910593033,0.0,0.0,0.0,0.03999999910593033,0.0,0.0,0.0,0.03999999910593033
1779682683375936083,857162,1779682683364441215,imu_link,0.00599575275555253,-0.003641641465947032,0.5541018843650818,0.8324141502380371,0.0024999999441206455,0.0,0.0,0.0,0.0024999999441206455,0.0,0.0,0.0,0.0024999999441206455,0.0,0.0,0.0,0.019999999552965164,0.0,0.0,0.0,0.019999999552965164,0.0,0.0,0.0,0.019999999552965164,0.16220715641975403,0.01735796220600605,9.64564037322998,0.03999999910593033,0.0,0.0,0.0,0.03999999910593033,0.0,0.0,0.0,0.03999999910593033
1779682683381484024,857163,1779682683369441215,imu_link,0.006066320929676294,-0.004383339546620846,0.5541034936904907,0.8324089646339417,0.0024999999441206455,0.0,0.0,0.0,0.0024999999441206455,0.0,0.0,0.0,0.0024999999441206455,0.0,0.0,0.0,0.019999999552965164,0.0,0.0,0.0,0.019999999552965164,0.0,0.0,0.0,0.019999999552965164,0.16639702022075653,0.033518824726343155,9.619303703308105,0.03999999910593033,0.0,0.0,0.0,0.03999999910593033,0.0,0.0,0.0,0.03999999910593033
1779682683386997607,857164,1779682683374441215,imu_link,0.006234605330973864,-0.005104589741677046,0.5541040897369385,0.8324032425880432,0.0024999999441206455,0.0,0.0,0.0,0.0024999999441206455,0.0,0.0,0.0,0.0024999999441206455,0.0,0.0,0.0,0.019999999552965164,0.0,0.0,0.0,0.019999999552965164,0.0,0.0,0.0,0.019999999552965164,0.2017114907503128,0.02513911761343479,9.592369079589844,0.03999999910593033,0.0,0.0,0.0,0.03999999910593033,0.0,0.0,0.0,0.03999999910593033
1779682683395285351,857165,1779682683379441215,imu_link,0.006234605330973864,-0.005104589741677046,0.5541040897369385,0.8324032425880432,0.0024999999441206455,0.0,0.0,0.0,0.0024999999441206455,0.0,0.0,0.0,0.0024999999441206455,0.0,0.0,0.0,0.019999999552965164,0.0,0.0,0.0,0.019999999552965164,0.0,0.0,0.0,0.019999999552965164,0.2017114907503128,0.02513911761343479,9.592369079589844,0.03999999910593033,0.0,0.0,0.0,0.03999999910593033,0.0,0.0,0.0,0.03999999910593033
1779682683401219243,857166,1779682683384441215,imu_link,0.006026387680321932,-0.005822354461997747,0.5541071891784668,0.8323979377746582,0.0024999999441206455,0.0,0.0,0.0,0.0024999999441206455,0.0,0.0,0.0,0.0024999999441206455,0.0,0.0,0.0,0.019999999552965164,0.0,0.0,0.0,0.019999999552965164,0.0,0.0,0.0,0.019999999552965164,0.17717091739177704,0.012569558806717396,9.680953979492188,0.03999999910593033,0.0,0.0,0.0,0.03999999910593033,0.0,0.0,0.0,0.03999999910593033
1779682683424268478,857167,1779682683393441215,imu_link,0.005071571096777916,-0.0051406132988631725,0.5541133880615234,0.832404613494873,0.0024999999441206455,0.0,0.0,0.0,0.0024999999441206455,0.0,0.0,0.0,0.0024999999441206455,0.0,0.0,0.0,0.019999999552965164,0.0,0.0,0.0,0.019999999552965164,0.0,0.0,0.0,0.019999999552965164,0.15023615956306458,0.03172317147254944,9.603142738342285,0.03999999910593033,0.0,0.0,0.0,0.03999999910593033,0.0,0.0,0.0,0.03999999910593033
1779682683430242848,857168,1779682683398441215,imu_link,0.005071571096777916,-0.0051406132988631725,0.5541133880615234,0.832404613494873,0.0024999999441206455,0.0,0.0,0.0,0.0024999999441206455,0.0,0.0,0.0,0.0024999999441206455,0.0,0.0,0.0,0.019999999552965164,0.0,0.0,0.0,0.019999999552965164,0.0,0.0,0.0,0.019999999552965164,0.15023615956306458,0.03172317147254944,9.603142738342285,0.03999999910593033,0.0,0.0,0.0,0.03999999910593033,0.0,0.0,0.0,0.03999999910593033
1779682683451810473,857169,1779682683445441215,imu_link,0.007226684596389532,-0.009328747168183327,0.5540977716445923,0.8323627710342407,0.0024999999441206455,0.0,0.0,0.0,0.0024999999441206455,0.0,0.0,0.0,0.0024999999441206455,0.0,0.0,0.0,0.019999999552965164,0.0,0.0,0.0,0.019999999552965164,0.0,0.0,0.0,0.019999999552965164,0.17537526786327362,0.02214636467397213,9.645041465759277,0.03999999910593033,0.0,0.0,0.0,0.03999999910593033,0.0,0.0,0.0,0.03999999910593033
1779682683458423155,857170,1779682683447441215,imu_link,0.007066638208925724,-0.008661672472953796,0.5540989637374878,0.8323705792427063,0.0024999999441206455,0.0,0.0,0.0,0.0024999999441206455,0.0,0.0,0.0,0.0024999999441206455,0.0,0.0,0.0,0.019999999552965164,0.0,0.0,0.0,0.019999999552965164,0.0,0.0,0.0,0.019999999552965164,0.193331778049469,0.028730420395731926,9.646238327026367,0.03999999910593033,0.0,0.0,0.0,0.03999999910593033,0.0,0.0,0.0,0.03999999910593033
1779682683463326597,857171,1779682683452441215,imu_link,0.006720415782183409,-0.008300034329295158,0.5541023015975952,0.8323748111724854,0.0024999999441206455,0.0,0.0,0.0,0.0024999999441206455,0.0,0.0,0.0,0.0024999999441206455,0.0,0.0,0.0,0.019999999552965164,0.0,0.0,0.0,0.019999999552965164,0.0,0.0,0.0,0.019999999552965164,0.19452887773513794,0.01735796220600605,9.61451530456543,0.03999999910593033,0.0,0.0,0.0,0.03999999910593033,0.0,0.0,0.0,0.03999999910593033
1779682683468712027,857172,1779682683457441215,imu_link,0.006720415782183409,-0.008300034329295158,0.5541023015975952,0.8323748111724854,0.0024999999441206455,0.0,0.0,0.0,0.0024999999441206455,0.0,0.0,0.0,0.0024999999441206455,0.0,0.0,0.0,0.019999999552965164,0.0,0.0,0.0,0.019999999552965164,0.0,0.0,0.0,0.019999999552965164,0.19452887773513794,0.01735796220600605,9.61451530456543,0.03999999910593033,0.0,0.0,0.0,0.03999999910593033,0.0,0.0,0.0,0.03999999910593033
1779682683474539392,857173,1779682683462441215,imu_link,0.006258860230445862,-0.007716001011431217,0.5541065335273743,0.8323813676834106,0.0024999999441206455,0.0,0.0,0.0,0.0024999999441206455,0.0,0.0,0.0,0.0024999999441206455,0.0,0.0,0.0,0.019999999552965164,0.0,0.0,0.0,0.019999999552965164,0.0,0.0,0.0,0.019999999552965164,0.17537526786327362,0.016759412363171577,9.627683639526367,0.03999999910593033,0.0,0.0,0.0,0.03999999910593033,0.0,0.0,0.0,0.03999999910593033
1779682683479945469,857174,1779682683467441215,imu_link,0.0062240115366876125,-0.006976742297410965,0.5541059970855713,0.8323884606361389,0.0024999999441206455,0.0,0.0,0.0,0.0024999999441206455,0.0,0.0,0.0,0.0024999999441206455,0.0,0.0,0.0,0.019999999552965164,0.0,0.0,0.0,0.019999999552965164,0.0,0.0,0.0,0.019999999552965164,0.16101005673408508,0.03531447425484657,9.601945877075195,0.03999999910593033,0.0,0.0,0.0,0.03999999910593033,0.0,0.0,0.0,0.03999999910593033
1779682683485999804,857175,1779682683472441215,imu_link,0.0062240115366876125,-0.006976742297410965,0.5541059970855713,0.8323884606361389,0.0024999999441206455,0.0,0.0,0.0,0.0024999999441206455,0.0,0.0,0.0,0.0024999999441206455,0.0,0.0,0.0,0.019999999552965164,0.0,0.0,0.0,0.019999999552965164,0.0,0.0,0.0,0.019999999552965164,0.16101005673408508,0.03531447425484657,9.601945877075195,0.03999999910593033,0.0,0.0,0.0,0.03999999910593033,0.0,0.0,0.0,0.03999999910593033
1779682683508488062,857176,1779682683482441215,imu_link,0.006149251479655504,-0.00697356928139925,0.554106593132019,0.8323885798454285,0.0024999999441206455,0.0,0.0,0.0,0.0024999999441206455,0.0,0.0,0.0,0.0024999999441206455,0.0,0.0,0.0,0.019999999552965164,0.0,0.0,0.0,0.019999999552965164,0.0,0.0,0.0,0.019999999552965164,0.19632454216480255,0.030526071786880493,9.665990829467773,0.03999999910593033,0.0,0.0,0.0,0.03999999910593033,0.0,0.0,0.0,0.03999999910593033
1779682683529826108,857177,1779682683519441215,imu_link,0.0056873494759202,-0.0037089313846081495,0.5541037917137146,0.8324146866798401,0.0024999999441206455,0.0,0.0,0.0,0.0024999999441206455,0.0,0.0,0.0,0.0024999999441206455,0.0,0.0,0.0,0.019999999552965164,0.0,0.0,0.0,0.019999999552965164,0.0,0.0,0.0,0.019999999552965164,0.16519992053508759,0.02992752008140087,9.620500564575195,0.03999999910593033,0.0,0.0,0.0,0.03999999910593033,0.0,0.0,0.0,0.03999999910593033
1779682683535616872,857178,1779682683521441215,imu_link,0.005751483608037233,-0.004390273243188858,0.5541051030158997,0.8324100971221924,0.0024999999441206455,0.0,0.0,0.0,0.0024999999441206455,0.0,0.0,0.0,0.0024999999441206455,0.0,0.0,0.0,0.019999999552965164,0.0,0.0,0.0,0.019999999552965164,0.0,0.0,0.0,0.019999999552965164,0.16998831927776337,0.02513911761343479,9.657011985778809,0.03999999910593033,0.0,0.0,0.0,0.03999999910593033,0.0,0.0,0.0,0.03999999910593033
1779682683541496963,857179,1779682683526441215,imu_link,0.005751483608037233,-0.004390273243188858,0.5541051030158997,0.8324100971221924,0.0024999999441206455,0.0,0.0,0.0,0.0024999999441206455,0.0,0.0,0.0,0.0024999999441206455,0.0,0.0,0.0,0.019999999552965164,0.0,0.0,0.0,0.019999999552965164,0.0,0.0,0.0,0.019999999552965164,0.16998831927776337,0.02513911761343479,9.657011985778809,0.03999999910593033,0.0,0.0,0.0,0.03999999910593033,0.0,0.0,0.0,0.03999999910593033
1779682683546905017,857180,1779682683531441215,imu_link,0.005912594497203827,-0.005117361433804035,0.5541055798530579,0.8324045538902283,0.0024999999441206455,0.0,0.0,0.0,0.0024999999441206455,0.0,0.0,0.0,0.0024999999441206455,0.0,0.0,0.0,0.019999999552965164,0.0,0.0,0.0,0.019999999552965164,0.0,0.0,0.0,0.019999999552965164,0.1885433793067932,0.023343466222286224,9.624691009521484,0.03999999910593033,0.0,0.0,0.0,0.03999999910593033,0.0,0.0,0.0,0.03999999910593033
1779682683552383637,857181,1779682683536441215,imu_link,0.005553574301302433,-0.005764516536146402,0.5541094541549683,0.8324002027511597,0.0024999999441206455,0.0,0.0,0.0,0.0024999999441206455,0.0,0.0,0.0,0.0024999999441206455,0.0,0.0,0.0,0.019999999552965164,0.0,0.0,0.0,0.019999999552965164,0.0,0.0,0.0,0.019999999552965164,0.16101005673408508,0.009576806798577309,9.63187313079834,0.03999999910593033,0.0,0.0,0.0,0.03999999910593033,0.0,0.0,0.0,0.03999999910593033
1779682683558419429,857182,1779682683541441215,imu_link,0.005553574301302433,-0.005764516536146402,0.5541094541549683,0.8324002027511597,0.0024999999441206455,0.0,0.0,0.0,0.0024999999441206455,0.0,0.0,0.0,0.0024999999441206455,0.0,0.0,0.0,0.019999999552965164,0.0,0.0,0.0,0.019999999552965164,0.0,0.0,0.0,0.019999999552965164,0.16101005673408508,0.009576806798577309,9.63187313079834,0.03999999910593033,0.0,0.0,0.0,0.03999999910593033,0.0,0.0,0.0,0.03999999910593033
1779682683564589166,857183,1779682683546441215,imu_link,0.005546813830733299,-0.006511504761874676,0.5541103482246399,0.8323940634727478,0.0024999999441206455,0.0,0.0,0.0,0.0024999999441206455,0.0,0.0,0.0,0.0024999999441206455,0.0,0.0,0.0,0.019999999552965164,0.0,0.0,0.0,0.019999999552965164,0.0,0.0,0.0,0.019999999552965164,0.18136078119277954,0.0077811554074287415,9.658807754516602,0.03999999910593033,0.0,0.0,0.0,0.03999999910593033,0.0,0.0,0.0,0.03999999910593033
1779682683587106389,857184,1779682683555441215,imu_link,0.006460061762481928,-0.007237187121063471,0.5541029572486877,0.8323864340782166,0.0024999999441206455,0.0,0.0,0.0,0.0024999999441206455,0.0,0.0,0.0,0.0024999999441206455,0.0,0.0,0.0,0.019999999552965164,0.0,0.0,0.0,0.019999999552965164,0.0,0.0,0.0,0.019999999552965164,0.16819266974925995,0.020949264988303185,9.619902610778809,0.03999999910593033,0.0,0.0,0.0,0.03999999910593033,0.0,0.0,0.0,0.03999999910593033
1779682683609932062,857185,1779682683602441215,imu_link,0.003481953637674451,-0.004253534600138664,0.5541225671768188,0.8324118256568909,0.0024999999441206455,0.0,0.0,0.0,0.0024999999441206455,0.0,0.0,0.0,0.0024999999441206455,0.0,0.0,0.0,0.019999999552965164,0.0,0.0,0.0,0.019999999552965164,0.0,0.0,0.0,0.019999999552965164,0.1430535465478897,0.017956512048840523,9.63067626953125,0.03999999910593033,0.0,0.0,0.0,0.03999999910593033,0.0,0.0,0.0,0.03999999910593033
1779682683618444365,857186,1779682683604441215,imu_link,0.003984027076512575,-0.004720320925116539,0.5541199445724487,0.8324087858200073,0.0024999999441206455,0.0,0.0,0.0,0.0024999999441206455,0.0,0.0,0.0,0.0024999999441206455,0.0,0.0,0.0,0.019999999552965164,0.0,0.0,0.0,0.019999999552965164,0.0,0.0,0.0,0.019999999552965164,0.1693897694349289,0.025737667456269264,9.620500564575195,0.03999999910593033,0.0,0.0,0.0,0.03999999910593033,0.0,0.0,0.0,0.03999999910593033
1779682683623731618,857187,1779682683609441215,imu_link,0.003984027076512575,-0.004720320925116539,0.5541199445724487,0.8324087858200073,0.0024999999441206455,0.0,0.0,0.0,0.0024999999441206455,0.0,0.0,0.0,0.0024999999441206455,0.0,0.0,0.0,0.019999999552965164,0.0,0.0,0.0,0.019999999552965164,0.0,0.0,0.0,0.019999999552965164,0.1693897694349289,0.025737667456269264,9.620500564575195,0.03999999910593033,0.0,0.0,0.0,0.03999999910593033,0.0,0.0,0.0,0.03999999910593033
1779682683629504796,857188,1779682683614441215,imu_link,0.00455132219940424,-0.005202337633818388,0.5541166663169861,0.832405149936676,0.0024999999441206455,0.0,0.0,0.0,0.0024999999441206455,0.0,0.0,0.0,0.0024999999441206455,0.0,0.0,0.0,0.019999999552965164,0.0,0.0,0.0,0.019999999552965164,0.0,0.0,0.0,0.019999999552965164,0.18614917993545532,0.032920271158218384,9.654618263244629,0.03999999910593033,0.0,0.0,0.0,0.03999999910593033,0.0,0.0,0.0,0.03999999910593033
1779682683635575646,857189,1779682683619441215,imu_link,0.004853653721511364,-0.005879850592464209,0.5541150569915771,0.8323999643325806,0.0024999999441206455,0.0,0.0,0.0,0.0024999999441206455,0.0,0.0,0.0,0.0024999999441206455,0.0,0.0,0.0,0.019999999552965164,0.0,0.0,0.0,0.019999999552965164,0.0,0.0,0.0,0.019999999552965164,0.17178396880626678,0.010773907415568829,9.643844604492188,0.03999999910593033,0.0,0.0,0.0,0.03999999910593033,0.0,0.0,0.0,0.03999999910593033
1779682683641299931,857190,1779682683624441215,imu_link,0.004853653721511364,-0.005879850592464209,0.5541150569915771,0.8323999643325806,0.0024999999441206455,0.0,0.0,0.0,0.0024999999441206455,0.0,0.0,0.0,0.0024999999441206455,0.0,0.0,0.0,0.019999999552965164,0.0,0.0,0.0,0.019999999552965164,0.0,0.0,0.0,0.019999999552965164,0.17178396880626678,0.010773907415568829,9.643844604492188,0.03999999910593033,0.0,0.0,0.0,0.03999999910593033,0.0,0.0,0.0,0.03999999910593033
1779682683647308712,857191,1779682683629441215,imu_link,0.004828188102692366,-0.006626534275710583,0.5541156530380249,0.8323940634727478,0.0024999999441206455,0.0,0.0,0.0,0.0024999999441206455,0.0,0.0,0.0,0.0024999999441206455,0.0,0.0,0.0,0.019999999552965164,0.0,0.0,0.0,0.019999999552965164,0.0,0.0,0.0,0.019999999552965164,0.1711854189634323,-0.002394201699644327,9.671377182006836,0.03999999910593033,0.0,0.0,0.0,0.03999999910593033,0.0,0.0,0.0,0.03999999910593033
1779682683669815351,857192,1779682683638441215,imu_link,0.00598202645778656,-0.0068218945525586605,0.5541059374809265,0.8323915600776672,0.0024999999441206455,0.0,0.0,0.0,0.0024999999441206455,0.0,0.0,0.0,0.0024999999441206455,0.0,0.0,0.0,0.019999999552965164,0.0,0.0,0.0,0.019999999552965164,0.0,0.0,0.0,0.019999999552965164,0.18136078119277954,0.03172317147254944,9.63067626953125,0.03999999910593033,0.0,0.0,0.0,0.03999999910593033,0.0,0.0,0.0,0.03999999910593033
1779682683675810528,857193,1779682683643441215,imu_link,0.00598202645778656,-0.0068218945525586605,0.5541059374809265,0.8323915600776672,0.0024999999441206455,0.0,0.0,0.0,0.0024999999441206455,0.0,0.0,0.0,0.0024999999441206455,0.0,0.0,0.0,0.019999999552965164,0.0,0.0,0.0,0.019999999552965164,0.0,0.0,0.0,0.019999999552965164,0.18136078119277954,0.03172317147254944,9.63067626953125,0.03999999910593033,0.0,0.0,0.0,0.03999999910593033,0.0,0.0,0.0,0.03999999910593033
1779682683696936053,857194,1779682683686441215,imu_link,0.002054499229416251,-0.008593601174652576,0.55413818359375,0.8323725461959839,0.0024999999441206455,0.0,0.0,0.0,0.0024999999441206455,0.0,0.0,0.0,0.0024999999441206455,0.0,0.0,0.0,0.019999999552965164,0.0,0.0,0.0,0.019999999552965164,0.0,0.0,0.0,0.019999999552965164,0.17178396880626678,0.012569558806717396,9.646238327026367,0.03999999910593033,0.0,0.0,0.0,0.03999999910593033,0.0,0.0,0.0,0.03999999910593033
1779682683702323308,857195,1779682683688441215,imu_link,0.00263081188313663,-0.008225636556744576,0.5541344285011292,0.8323771953582764,0.0024999999441206455,0.0,0.0,0.0,0.0024999999441206455,0.0,0.0,0.0,0.0024999999441206455,0.0,0.0,0.0,0.019999999552965164,0.0,0.0,0.0,0.019999999552965164,0.0,0.0,0.0,0.019999999552965164,0.16101005673408508,0.011372458189725876,9.627084732055664,0.03999999910593033,0.0,0.0,0.0,0.03999999910593033,0.0,0.0,0.0,0.03999999910593033
1779682683707562216,857196,1779682683693441215,imu_link,0.00263081188313663,-0.008225636556744576,0.5541344285011292,0.8323771953582764,0.0024999999441206455,0.0,0.0,0.0,0.0024999999441206455,0.0,0.0,0.0,0.0024999999441206455,0.0,0.0,0.0,0.019999999552965164,0.0,0.0,0.0,0.019999999552965164,0.0,0.0,0.0,0.019999999552965164,0.16101005673408508,0.011372458189725876,9.627084732055664,0.03999999910593033,0.0,0.0,0.0,0.03999999910593033,0.0,0.0,0.0,0.03999999910593033
1779682683713625289,857197,1779682683698441215,imu_link,0.0033415271900594234,-0.008000996895134449,0.554128885269165,0.8323805332183838,0.0024999999441206455,0.0,0.0,0.0,0.0024999999441206455,0.0,0.0,0.0,0.0024999999441206455,0.0,0.0,0.0,0.019999999552965164,0.0,0.0,0.0,0.019999999552965164,0.0,0.0,0.0,0.019999999552965164,0.17537526786327362,0.005985504016280174,9.657610893249512,0.03999999910593033,0.0,0.0,0.0,0.03999999910593033,0.0,0.0,0.0,0.03999999910593033
1779682683719499753,857198,1779682683703441215,imu_link,0.0040566944517195225,-0.0078022535890340805,0.5541229844093323,0.8323832154273987,0.0024999999441206455,0.0,0.0,0.0,0.0024999999441206455,0.0,0.0,0.0,0.0024999999441206455,0.0,0.0,0.0,0.019999999552965164,0.0,0.0,0.0,0.019999999552965164,0.0,0.0,0.0,0.019999999552965164,0.17657236754894257,0.0065840547904372215,9.632472038269043,0.03999999910593033,0.0,0.0,0.0,0.03999999910593033,0.0,0.0,0.0,0.03999999910593033
1779682683725447520,857199,1779682683708441215,imu_link,0.0040566944517195225,-0.0078022535890340805,0.5541229844093323,0.8323832154273987,0.0024999999441206455,0.0,0.0,0.0,0.0024999999441206455,0.0,0.0,0.0,0.0024999999441206455,0.0,0.0,0.0,0.019999999552965164,0.0,0.0,0.0,0.019999999552965164,0.0,0.0,0.0,0.019999999552965164,0.17657236754894257,0.0065840547904372215,9.632472038269043,0.03999999910593033,0.0,0.0,0.0,0.03999999910593033,0.0,0.0,0.0,0.03999999910593033
1779682683732163411,857200,1779682683713441215,imu_link,0.0047638751566410065,-0.007566741202026606,0.5541168451309204,0.8323857188224792,0.0024999999441206455,0.0,0.0,0.0,0.0024999999441206455,0.0,0.0,0.0,0.0024999999441206455,0.0,0.0,0.0,0.019999999552965164,0.0,0.0,0.0,0.019999999552965164,0.0,0.0,0.0,0.019999999552965164,0.17896656692028046,0.01975216343998909,9.642048835754395,0.03999999910593033,0.0,0.0,0.0,0.03999999910593033,0.0,0.0,0.0,0.03999999910593033
1779682683754751690,857201,1779682683722441215,imu_link,0.005902041681110859,-0.007826517336070538,0.5541062355041504,0.8323830962181091,0.0024999999441206455,0.0,0.0,0.0,0.0024999999441206455,0.0,0.0,0.0,0.0024999999441206455,0.0,0.0,0.0,0.019999999552965164,0.0,0.0,0.0,0.019999999552965164,0.0,0.0,0.0,0.019999999552965164,0.17836801707744598,0.0011971008498221636,9.64683723449707,0.03999999910593033,0.0,0.0,0.0,0.03999999910593033,0.0,0.0,0.0,0.03999999910593033
1779682683776780918,857202,1779682683764441215,imu_link,0.006211100611835718,-0.004123440943658352,0.5540972948074341,0.8324134349822998,0.0024999999441206455,0.0,0.0,0.0,0.0024999999441206455,0.0,0.0,0.0,0.0024999999441206455,0.0,0.0,0.0,0.019999999552965164,0.0,0.0,0.0,0.019999999552965164,0.0,0.0,0.0,0.019999999552965164,0.16160860657691956,0.03232172131538391,9.624092102050781,0.03999999910593033,0.0,0.0,0.0,0.03999999910593033,0.0,0.0,0.0,0.03999999910593033
1779682683782213796,857203,1779682683766441215,imu_link,0.006352761294692755,-0.004793565254658461,0.5540980696678162,0.8324081301689148,0.0024999999441206455,0.0,0.0,0.0,0.0024999999441206455,0.0,0.0,0.0,0.0024999999441206455,0.0,0.0,0.0,0.019999999552965164,0.0,0.0,0.0,0.019999999552965164,0.0,0.0,0.0,0.019999999552965164,0.17477671802043915,0.03890577703714371,9.647435188293457,0.03999999910593033,0.0,0.0,0.0,0.03999999910593033,0.0,0.0,0.0,0.03999999910593033
1779682683789110087,857204,1779682683771441215,imu_link,0.006352761294692755,-0.004793565254658461,0.5540980696678162,0.8324081301689148,0.0024999999441206455,0.0,0.0,0.0,0.0024999999441206455,0.0,0.0,0.0,0.0024999999441206455,0.0,0.0,0.0,0.019999999552965164,0.0,0.0,0.0,0.019999999552965164,0.0,0.0,0.0,0.019999999552965164,0.17477671802043915,0.03890577703714371,9.647435188293457,0.03999999910593033,0.0,0.0,0.0,0.03999999910593033,0.0,0.0,0.0,0.03999999910593033
1779682683795365913,857205,1779682683776441215,imu_link,0.0063596381805837154,-0.005538866855204105,0.5540998578071594,0.8324023485183716,0.0024999999441206455,0.0,0.0,0.0,0.0024999999441206455,0.0,0.0,0.0,0.0024999999441206455,0.0,0.0,0.0,0.019999999552965164,0.0,0.0,0.0,0.019999999552965164,0.0,0.0,0.0,0.019999999552965164,0.20769698917865753,0.008978256024420261,9.589974403381348,0.03999999910593033,0.0,0.0,0.0,0.03999999910593033,0.0,0.0,0.0,0.03999999910593033
1779682683798956585,857206,1779682683781441215,imu_link,0.006260343361645937,-0.006029684096574783,0.5541017055511475,0.8323984146118164,0.0024999999441206455,0.0,0.0,0.0,0.0024999999441206455,0.0,0.0,0.0,0.0024999999441206455,0.0,0.0,0.0,0.019999999552965164,0.0,0.0,0.0,0.019999999552965164,0.0,0.0,0.0,0.019999999552965164,0.19213467836380005,0.0077811554074287415,9.652822494506836,0.03999999910593033,0.0,0.0,0.0,0.03999999910593033,0.0,0.0,0.0,0.03999999910593033
1779682683804513588,857207,1779682683786441215,imu_link,0.00596174830570817,-0.006430708337575197,0.5541049242019653,0.8323954939842224,0.0024999999441206455,0.0,0.0,0.0,0.0024999999441206455,0.0,0.0,0.0,0.0024999999441206455,0.0,0.0,0.0,0.019999999552965164,0.0,0.0,0.0,0.019999999552965164,0.0,0.0,0.0,0.019999999552965164,0.16998831927776337,0.016759412363171577,9.607931137084961,0.03999999910593033,0.0,0.0,0.0,0.03999999910593033,0.0,0.0,0.0,0.03999999910593033
1779682683810438610,857208,1779682683791441215,imu_link,0.0054888296872377396,-0.0062683154828846455,0.554108738899231,0.8323975205421448,0.0024999999441206455,0.0,0.0,0.0,0.0024999999441206455,0.0,0.0,0.0,0.0024999999441206455,0.0,0.0,0.0,0.019999999552965164,0.0,0.0,0.0,0.019999999552965164,0.0,0.0,0.0,0.019999999552965164,0.15981295704841614,0.02214636467397213,9.582792282104492,0.03999999910593033,0.0,0.0,0.0,0.03999999910593033,0.0,0.0,0.0,0.03999999910593033
1779682683832763923,857209,1779682683801441215,imu_link,0.005686592310667038,-0.0074272784404456615,0.5541079640388489,0.8323871493339539,0.0024999999441206455,0.0,0.0,0.0,0.0024999999441206455,0.0,0.0,0.0,0.0024999999441206455,0.0,0.0,0.0,0.019999999552965164,0.0,0.0,0.0,0.019999999552965164,0.0,0.0,0.0,0.019999999552965164,0.16879121959209442,0.016759412363171577,9.626486778259277,0.03999999910593033,0.0,0.0,0.0,0.03999999910593033,0.0,0.0,0.0,0.03999999910593033
1779682683855295655,857210,1779682683848441215,imu_link,0.0032999436371028423,-0.0038603385910391808,0.5541229248046875,0.8324142694473267,0.0024999999441206455,0.0,0.0,0.0,0.0024999999441206455,0.0,0.0,0.0,0.0024999999441206455,0.0,0.0,0.0,0.019999999552965164,0.0,0.0,0.0,0.019999999552965164,0.0,0.0,0.0,0.019999999552965164,0.15502455830574036,0.011971008032560349,9.736021041870117,0.03999999910593033,0.0,0.0,0.0,0.03999999910593033,0.0,0.0,0.0,0.03999999910593033
1779682683860537981,857211,1779682683850441215,imu_link,0.0038195066154003143,-0.004307740367949009,0.5541204214096069,0.8324114084243774,0.0024999999441206455,0.0,0.0,0.0,0.0024999999441206455,0.0,0.0,0.0,0.0024999999441206455,0.0,0.0,0.0,0.019999999552965164,0.0,0.0,0.0,0.019999999552965164,0.0,0.0,0.0,0.019999999552965164,0.18375498056411743,0.035913024097681046,9.637260437011719,0.03999999910593033,0.0,0.0,0.0,0.03999999910593033,0.0,0.0,0.0,0.03999999910593033
1779682683866785106,857212,1779682683855441215,imu_link,0.0038195066154003143,-0.004307740367949009,0.5541204214096069,0.8324114084243774,0.0024999999441206455,0.0,0.0,0.0,0.0024999999441206455,0.0,0.0,0.0,0.0024999999441206455,0.0,0.0,0.0,0.019999999552965164,0.0,0.0,0.0,0.019999999552965164,0.0,0.0,0.0,0.019999999552965164,0.18375498056411743,0.035913024097681046,9.637260437011719,0.03999999910593033,0.0,0.0,0.0,0.03999999910593033,0.0,0.0,0.0,0.03999999910593033
1779682683871928679,857213,1779682683860441215,imu_link,0.004174905363470316,-0.004962540231645107,0.5541187524795532,0.8324071168899536,0.0024999999441206455,0.0,0.0,0.0,0.0024999999441206455,0.0,0.0,0.0,0.0024999999441206455,0.0,0.0,0.0,0.019999999552965164,0.0,0.0,0.0,0.019999999552965164,0.0,0.0,0.0,0.019999999552965164,0.15981295704841614,0.010773907415568829,9.639056205749512,0.03999999910593033,0.0,0.0,0.0,0.03999999910593033,0.0,0.0,0.0,0.03999999910593033
1779682683877631107,857214,1779682683865441215,imu_link,0.004746435210108757,-0.005437481217086315,0.5541152954101562,0.8324034214019775,0.0024999999441206455,0.0,0.0,0.0,0.0024999999441206455,0.0,0.0,0.0,0.0024999999441206455,0.0,0.0,0.0,0.019999999552965164,0.0,0.0,0.0,0.019999999552965164,0.0,0.0,0.0,0.019999999552965164,0.193331778049469,0.0347159244120121,9.594762802124023,0.03999999910593033,0.0,0.0,0.0,0.03999999910593033,0.0,0.0,0.0,0.03999999910593033
1779682683883156873,857215,1779682683870441215,imu_link,0.004746435210108757,-0.005437481217086315,0.5541152954101562,0.8324034214019775,0.0024999999441206455,0.0,0.0,0.0,0.0024999999441206455,0.0,0.0,0.0,0.0024999999441206455,0.0,0.0,0.0,0.019999999552965164,0.0,0.0,0.0,0.019999999552965164,0.0,0.0,0.0,0.019999999552965164,0.193331778049469,0.0347159244120121,9.594762802124023,0.03999999910593033,0.0,0.0,0.0,0.03999999910593033,0.0,0.0,0.0,0.03999999910593033
1779682683889728667,857216,1779682683875441215,imu_link,0.005316574592143297,-0.005917641334235668,0.5541115403175354,0.8323992490768433,0.0024999999441206455,0.0,0.0,0.0,0.0024999999441206455,0.0,0.0,0.0,0.0024999999441206455,0.0,0.0,0.0,0.019999999552965164,0.0,0.0,0.0,0.019999999552965164,0.0,0.0,0.0,0.019999999552965164,0.18914192914962769,0.032920271158218384,9.67077922821045,0.03999999910593033,0.0,0.0,0.0,0.03999999910593033,0.0,0.0,0.0,0.03999999910593033
1779682683913299890,857217,1779682683884441215,imu_link,0.005712212063372135,-0.007015748415142298,0.5541093349456787,0.8323895931243896,0.0024999999441206455,0.0,0.0,0.0,0.0024999999441206455,0.0,0.0,0.0,0.0024999999441206455,0.0,0.0,0.0,0.019999999552965164,0.0,0.0,0.0,0.019999999552965164,0.0,0.0,0.0,0.019999999552965164,0.16639702022075653,0.018555063754320145,9.647435188293457,0.03999999910593033,0.0,0.0,0.0,0.03999999910593033,0.0,0.0,0.0,0.03999999910593033
1779682683918943057,857218,1779682683889441215,imu_link,0.005712212063372135,-0.007015748415142298,0.5541093349456787,0.8323895931243896,0.0024999999441206455,0.0,0.0,0.0,0.0024999999441206455,0.0,0.0,0.0,0.0024999999441206455,0.0,0.0,0.0,0.019999999552965164,0.0,0.0,0.0,0.019999999552965164,0.0,0.0,0.0,0.019999999552965164,0.16639702022075653,0.018555063754320145,9.647435188293457,0.03999999910593033,0.0,0.0,0.0,0.03999999910593033,0.0,0.0,0.0,0.03999999910593033
1779682683941211182,857219,1779682683931441215,imu_link,0.003829418681561947,-0.003246733918786049,0.5541180372238159,0.8324177265167236,0.0024999999441206455,0.0,0.0,0.0,0.0024999999441206455,0.0,0.0,0.0,0.0024999999441206455,0.0,0.0,0.0,0.019999999552965164,0.0,0.0,0.0,0.019999999552965164,0.0,0.0,0.0,0.019999999552965164,0.16759411990642548,0.01735796220600605,9.609726905822754,0.03999999910593033,0.0,0.0,0.0,0.03999999910593033,0.0,0.0,0.0,0.03999999910593033
1779682683946236948,857220,1779682683933441215,imu_link,0.004090788774192333,-0.0038811624981462955,0.5541175603866577,0.8324141502380371,0.0024999999441206455,0.0,0.0,0.0,0.0024999999441206455,0.0,0.0,0.0,0.0024999999441206455,0.0,0.0,0.0,0.019999999552965164,0.0,0.0,0.0,0.019999999552965164,0.0,0.0,0.0,0.019999999552965164,0.17238251864910126,0.010773907415568829,9.59715747833252,0.03999999910593033,0.0,0.0,0.0,0.03999999910593033,0.0,0.0,0.0,0.03999999910593033
1779682683951426899,857221,1779682683938441215,imu_link,0.004090788774192333,-0.0038811624981462955,0.5541175603866577,0.8324141502380371,0.0024999999441206455,0.0,0.0,0.0,0.0024999999441206455,0.0,0.0,0.0,0.0024999999441206455,0.0,0.0,0.0,0.019999999552965164,0.0,0.0,0.0,0.019999999552965164,0.0,0.0,0.0,0.019999999552965164,0.17238251864910126,0.010773907415568829,9.59715747833252,0.03999999910593033,0.0,0.0,0.0,0.03999999910593033,0.0,0.0,0.0,0.03999999910593033
1779682683957491367,857222,1779682683943441215,imu_link,0.004512026906013489,-0.004496044013649225,0.5541158318519592,0.8324100375175476,0.0024999999441206455,0.0,0.0,0.0,0.0024999999441206455,0.0,0.0,0.0,0.0024999999441206455,0.0,0.0,0.0,0.019999999552965164,0.0,0.0,0.0,0.019999999552965164,0.0,0.0,0.0,0.019999999552965164,0.17836801707744598,0.02513911761343479,9.63306999206543,0.03999999910593033,0.0,0.0,0.0,0.03999999910593033,0.0,0.0,0.0,0.03999999910593033
1779682683962909160,857223,1779682683948441215,imu_link,0.004637485835701227,-0.004980106372386217,0.5541155934333801,0.832406759262085,0.0024999999441206455,0.0,0.0,0.0,0.0024999999441206455,0.0,0.0,0.0,0.0024999999441206455,0.0,0.0,0.0,0.019999999552965164,0.0,0.0,0.0,0.019999999552965164,0.0,0.0,0.0,0.019999999552965164,0.18495208024978638,0.0017956512747332454,9.610923767089844,0.03999999910593033,0.0,0.0,0.0,0.03999999910593033,0.0,0.0,0.0,0.03999999910593033
1779682683969089514,857224,1779682683953441215,imu_link,0.0046952590346336365,-0.005477316211909056,0.5541157126426697,0.832403302192688,0.0024999999441206455,0.0,0.0,0.0,0.0024999999441206455,0.0,0.0,0.0,0.0024999999441206455,0.0,0.0,0.0,0.019999999552965164,0.0,0.0,0.0,0.019999999552965164,0.0,0.0,0.0,0.019999999552965164,0.16639702022075653,0.002394201699644327,9.639654159545898,0.03999999910593033,0.0,0.0,0.0,0.03999999910593033,0.0,0.0,0.0,0.03999999910593033
1779682683974806841,857225,1779682683958441215,imu_link,0.005077302921563387,-0.0061144460923969746,0.5541133880615234,0.8323981165885925,0.0024999999441206455,0.0,0.0,0.0,0.0024999999441206455,0.0,0.0,0.0,0.0024999999441206455,0.0,0.0,0.0,0.019999999552965164,0.0,0.0,0.0,0.019999999552965164,0.0,0.0,0.0,0.019999999552965164,0.18974047899246216,0.014365210197865963,9.625288963317871,0.03999999910593033,0.0,0.0,0.0,0.03999999910593033,0.0,0.0,0.0,0.03999999910593033
1779682683998116682,857226,1779682683968441215,imu_link,0.005590788088738918,-0.006895511411130428,0.5541097521781921,0.8323911428451538,0.0024999999441206455,0.0,0.0,0.0,0.0024999999441206455,0.0,0.0,0.0,0.0024999999441206455,0.0,0.0,0.0,0.019999999552965164,0.0,0.0,0.0,0.019999999552965164,0.0,0.0,0.0,0.019999999552965164,0.16101005673408508,0.016160860657691956,9.66658878326416,0.03999999910593033,0.0,0.0,0.0,0.03999999910593033,0.0,0.0,0.0,0.03999999910593033
1779682684019588319,857227,1779682684011441215,imu_link,0.007792817894369364,-0.0036890751216560602,0.5540834069252014,0.8324113488197327,0.0024999999441206455,0.0,0.0,0.0,0.0024999999441206455,0.0,0.0,0.0,0.0024999999441206455,0.0,0.0,0.0,0.019999999552965164,0.0,0.0,0.0,0.019999999552965164,0.0,0.0,0.0,0.019999999552965164,0.1646013706922531,0.0293289702385664,9.61331844329834,0.03999999910593033,0.0,0.0,0.0,0.03999999910593033,0.0,0.0,0.0,0.03999999910593033
1779682684025189231,857228,1779682684013441215,imu_link,0.007361677475273609,-0.004223908297717571,0.554088830947876,0.8324090838432312,0.0024999999441206455,0.0,0.0,0.0,0.0024999999441206455,0.0,0.0,0.0,0.0024999999441206455,0.0,0.0,0.0,0.019999999552965164,0.0,0.0,0.0,0.019999999552965164,0.0,0.0,0.0,0.019999999552965164,0.15921440720558167,0.033518824726343155,9.658209800720215,0.03999999910593033,0.0,0.0,0.0,0.03999999910593033,0.0,0.0,0.0,0.03999999910593033
1779682684030701554,857229,1779682684018441215,imu_link,0.007361677475273609,-0.004223908297717571,0.554088830947876,0.8324090838432312,0.0024999999441206455,0.0,0.0,0.0,0.0024999999441206455,0.0,0.0,0.0,0.0024999999441206455,0.0,0.0,0.0,0.019999999552965164,0.0,0.0,0.0,0.019999999552965164,0.0,0.0,0.0,0.019999999552965164,0.15921440720558167,0.033518824726343155,9.658209800720215,0.03999999910593033,0.0,0.0,0.0,0.03999999910593033,0.0,0.0,0.0,0.03999999910593033
1779682684036075319,857230,1779682684023441215,imu_link,0.006884605623781681,-0.004795169457793236,0.5540944933891296,0.8324063420295715,0.0024999999441206455,0.0,0.0,0.0,0.0024999999441206455,0.0,0.0,0.0,0.0024999999441206455,0.0,0.0,0.0,0.019999999552965164,0.0,0.0,0.0,0.019999999552965164,0.0,0.0,0.0,0.019999999552965164,0.1604115068912506,0.02693476900458336,9.658209800720215,0.03999999910593033,0.0,0.0,0.0,0.03999999910593033,0.0,0.0,0.0,0.03999999910593033
1779682684041824846,857231,1779682684028441215,imu_link,0.006688470486551523,-0.005255287047475576,0.5540973544120789,0.8324032425880432,0.0024999999441206455,0.0,0.0,0.0,0.0024999999441206455,0.0,0.0,0.0,0.0024999999441206455,0.0,0.0,0.0,0.019999999552965164,0.0,0.0,0.0,0.019999999552965164,0.0,0.0,0.0,0.019999999552965164,0.18614917993545532,0.005386953707784414,9.654019355773926,0.03999999910593033,0.0,0.0,0.0,0.03999999910593033,0.0,0.0,0.0,0.03999999910593033
1779682684047932490,857232,1779682684033441215,imu_link,0.006388124544173479,-0.005655254703015089,0.554100751876831,0.8324006795883179,0.0024999999441206455,0.0,0.0,0.0,0.0024999999441206455,0.0,0.0,0.0,0.0024999999441206455,0.0,0.0,0.0,0.019999999552965164,0.0,0.0,0.0,0.019999999552965164,0.0,0.0,0.0,0.019999999552965164,0.16879121959209442,0.013766659423708916,9.626486778259277,0.03999999910593033,0.0,0.0,0.0,0.03999999910593033,0.0,0.0,0.0,0.03999999910593033
1779682684054238185,857233,1779682684038441215,imu_link,0.006031425204128027,-0.00630722101777792,0.5541049838066101,0.8323959112167358,0.0024999999441206455,0.0,0.0,0.0,0.0024999999441206455,0.0,0.0,0.0,0.0024999999441206455,0.0,0.0,0.0,0.019999999552965164,0.0,0.0,0.0,0.019999999552965164,0.0,0.0,0.0,0.019999999552965164,0.1777694672346115,0.005386953707784414,9.612719535827637,0.03999999910593033,0.0,0.0,0.0,0.03999999910593033,0.0,0.0,0.0,0.03999999910593033
1779682684077240759,857234,1779682684048441215,imu_link,0.005368344020098448,-0.006966513581573963,0.5541114211082458,0.8323908448219299,0.0024999999441206455,0.0,0.0,0.0,0.0024999999441206455,0.0,0.0,0.0,0.0024999999441206455,0.0,0.0,0.0,0.019999999552965164,0.0,0.0,0.0,0.019999999552965164,0.0,0.0,0.0,0.019999999552965164,0.1693897694349289,0.013168109580874443,9.667786598205566,0.03999999910593033,0.0,0.0,0.0,0.03999999910593033,0.0,0.0,0.0,0.03999999910593033
1779682684083133770,857235,1779682684055441215,imu_link,0.006036313716322184,-0.0072922660037875175,0.5541056394577026,0.8323874473571777,0.0024999999441206455,0.0,0.0,0.0,0.0024999999441206455,0.0,0.0,0.0,0.0024999999441206455,0.0,0.0,0.0,0.019999999552965164,0.0,0.0,0.0,0.019999999552965164,0.0,0.0,0.0,0.019999999552965164,0.17417816817760468,0.014963760040700436,9.606135368347168,0.03999999910593033,0.0,0.0,0.0,0.03999999910593033,0.0,0.0,0.0,0.03999999910593033
1779682684104588269,857236,1779682684093441215,imu_link,0.007807471323758364,-0.010130084119737148,0.5540886521339417,0.8323543071746826,0.0024999999441206455,0.0,0.0,0.0,0.0024999999441206455,0.0,0.0,0.0,0.0024999999441206455,0.0,0.0,0.0,0.019999999552965164,0.0,0.0,0.0,0.019999999552965164,0.0,0.0,0.0,0.019999999552965164,0.1951274424791336,0.018555063754320145,9.632472038269043,0.03999999910593033,0.0,0.0,0.0,0.03999999910593033,0.0,0.0,0.0,0.03999999910593033
1779682684110205188,857237,1779682684095441215,imu_link,0.007528901100158691,-0.009501500055193901,0.5540914535522461,0.8323623538017273,0.0024999999441206455,0.0,0.0,0.0,0.0024999999441206455,0.0,0.0,0.0,0.0024999999441206455,0.0,0.0,0.0,0.019999999552965164,0.0,0.0,0.0,0.019999999552965164,0.0,0.0,0.0,0.019999999552965164,0.1454477459192276,0.03411737456917763,9.600749015808105,0.03999999910593033,0.0,0.0,0.0,0.03999999910593033,0.0,0.0,0.0,0.03999999910593033
1779682684115577906,857238,1779682684100441215,imu_link,0.007528901100158691,-0.009501500055193901,0.5540914535522461,0.8323623538017273,0.0024999999441206455,0.0,0.0,0.0,0.0024999999441206455,0.0,0.0,0.0,0.0024999999441206455,0.0,0.0,0.0,0.019999999552965164,0.0,0.0,0.0,0.019999999552965164,0.0,0.0,0.0,0.019999999552965164,0.1454477459192276,0.03411737456917763,9.600749015808105,0.03999999910593033,0.0,0.0,0.0,0.03999999910593033,0.0,0.0,0.0,0.03999999910593033
1779682684121303780,857239,1779682684105441215,imu_link,0.007007952313870192,-0.008970401249825954,0.554097056388855,0.8323690295219421,0.0024999999441206455,0.0,0.0,0.0,0.0024999999441206455,0.0,0.0,0.0,0.0024999999441206455,0.0,0.0,0.0,0.019999999552965164,0.0,0.0,0.0,0.019999999552965164,0.0,0.0,0.0,0.019999999552965164,0.1693897694349289,0.0071826050989329815,9.647435188293457,0.03999999910593033,0.0,0.0,0.0,0.03999999910593033,0.0,0.0,0.0,0.03999999910593033
1779682684127271870,857240,1779682684110441215,imu_link,0.006612883415073156,-0.008663851767778397,0.5541012287139893,0.832372784614563,0.0024999999441206455,0.0,0.0,0.0,0.0024999999441206455,0.0,0.0,0.0,0.0024999999441206455,0.0,0.0,0.0,0.019999999552965164,0.0,0.0,0.0,0.019999999552965164,0.0,0.0,0.0,0.019999999552965164,0.181959331035614,0.004189853090792894,9.651625633239746,0.03999999910593033,0.0,0.0,0.0,0.03999999910593033,0.0,0.0,0.0,0.03999999910593033
1779682684133136510,857241,1779682684115441215,imu_link,0.0063033150508999825,-0.008271262049674988,0.5541042685508728,0.8323771357536316,0.0024999999441206455,0.0,0.0,0.0,0.0024999999441206455,0.0,0.0,0.0,0.0024999999441206455,0.0,0.0,0.0,0.019999999552965164,0.0,0.0,0.0,0.019999999552965164,0.0,0.0,0.0,0.019999999552965164,0.16759411990642548,0.010175356641411781,9.643844604492188,0.03999999910593033,0.0,0.0,0.0,0.03999999910593033,0.0,0.0,0.0,0.03999999910593033
1779682684138806378,857242,1779682684120441215,imu_link,0.005850720219314098,-0.0076851611956954,0.5541084408760071,0.8323832750320435,0.0024999999441206455,0.0,0.0,0.0,0.0024999999441206455,0.0,0.0,0.0,0.0024999999441206455,0.0,0.0,0.0,0.019999999552965164,0.0,0.0,0.0,0.019999999552965164,0.0,0.0,0.0,0.019999999552965164,0.1628057062625885,0.010175356641411781,9.610923767089844,0.03999999910593033,0.0,0.0,0.0,0.03999999910593033,0.0,0.0,0.0,0.03999999910593033
1779682684177757894,857243,1779682684171441215,imu_link,0.0021665082313120365,-0.004889868199825287,0.554136335849762,0.8324036598205566,0.0024999999441206455,0.0,0.0,0.0,0.0024999999441206455,0.0,0.0,0.0,0.0024999999441206455,0.0,0.0,0.0,0.019999999552965164,0.0,0.0,0.0,0.019999999552965164,0.0,0.0,0.0,0.019999999552965164,0.1646013706922531,0.004189853090792894,9.679159164428711,0.03999999910593033,0.0,0.0,0.0,0.03999999910593033,0.0,0.0,0.0,0.03999999910593033
1779682684183444924,857244,1779682684173441215,imu_link,0.0028135201428085566,-0.00512719014659524,0.5541325211524963,0.8324026465415955,0.0024999999441206455,0.0,0.0,0.0,0.0024999999441206455,0.0,0.0,0.0,0.0024999999441206455,0.0,0.0,0.0,0.019999999552965164,0.0,0.0,0.0,0.019999999552965164,0.0,0.0,0.0,0.019999999552965164,0.1496376097202301,0.01735796220600605,9.672574996948242,0.03999999910593033,0.0,0.0,0.0,0.03999999910593033,0.0,0.0,0.0,0.03999999910593033
1779682684190653938,857245,1779682684178441215,imu_link,0.0028135201428085566,-0.00512719014659524,0.5541325211524963,0.8324026465415955,0.0024999999441206455,0.0,0.0,0.0,0.0024999999441206455,0.0,0.0,0.0,0.0024999999441206455,0.0,0.0,0.0,0.019999999552965164,0.0,0.0,0.0,0.019999999552965164,0.0,0.0,0.0,0.019999999552965164,0.1496376097202301,0.01735796220600605,9.672574996948242,0.03999999910593033,0.0,0.0,0.0,0.03999999910593033,0.0,0.0,0.0,0.03999999910593033
1779682684196673153,857246,1779682684183441215,imu_link,0.0034796276595443487,-0.00546184042468667,0.5541283488273621,0.8324007987976074,0.0024999999441206455,0.0,0.0,0.0,0.0024999999441206455,0.0,0.0,0.0,0.0024999999441206455,0.0,0.0,0.0,0.019999999552965164,0.0,0.0,0.0,0.019999999552965164,0.0,0.0,0.0,0.019999999552965164,0.17178396880626678,0.02454056777060032,9.600150108337402,0.03999999910593033,0.0,0.0,0.0,0.03999999910593033,0.0,0.0,0.0,0.03999999910593033
1779682684200426574,857247,1779682684188441215,imu_link,0.0038055013865232468,-0.005840982776135206,0.5541261434555054,0.8323982954025269,0.0024999999441206455,0.0,0.0,0.0,0.0024999999441206455,0.0,0.0,0.0,0.0024999999441206455,0.0,0.0,0.0,0.019999999552965164,0.0,0.0,0.0,0.019999999552965164,0.0,0.0,0.0,0.019999999552965164,0.1843535304069519,0.004788403399288654,9.660603523254395,0.03999999910593033,0.0,0.0,0.0,0.03999999910593033,0.0,0.0,0.0,0.03999999910593033
1779682684206489261,857248,1779682684193441215,imu_link,0.00422108918428421,-0.0061190626583993435,0.5541232228279114,0.8323962688446045,0.0024999999441206455,0.0,0.0,0.0,0.0024999999441206455,0.0,0.0,0.0,0.0024999999441206455,0.0,0.0,0.0,0.019999999552965164,0.0,0.0,0.0,0.019999999552965164,0.0,0.0,0.0,0.019999999552965164,0.20051439106464386,0.026336219161748886,9.605537414550781,0.03999999910593033,0.0,0.0,0.0,0.03999999910593033,0.0,0.0,0.0,0.03999999910593033
1779682684212795342,857249,1779682684198441215,imu_link,0.004714566748589277,-0.006201727781444788,0.5541195273399353,0.8323954939842224,0.0024999999441206455,0.0,0.0,0.0,0.0024999999441206455,0.0,0.0,0.0,0.0024999999441206455,0.0,0.0,0.0,0.019999999552965164,0.0,0.0,0.0,0.019999999552965164,0.0,0.0,0.0,0.019999999552965164,0.1628057062625885,0.023942016065120697,9.589376449584961,0.03999999910593033,0.0,0.0,0.0,0.03999999910593033,0.0,0.0,0.0,0.03999999910593033
1779682684235179288,857250,1779682684208441215,imu_link,0.005804040003567934,-0.006636258214712143,0.5541109442710876,0.832391083240509,0.0024999999441206455,0.0,0.0,0.0,0.0024999999441206455,0.0,0.0,0.0,0.0024999999441206455,0.0,0.0,0.0,0.019999999552965164,0.0,0.0,0.0,0.019999999552965164,0.0,0.0,0.0,0.019999999552965164,0.17537526786327362,0.02693476900458336,9.643844604492188,0.03999999910593033,0.0,0.0,0.0,0.03999999910593033,0.0,0.0,0.0,0.03999999910593033
1779682684240872472,857251,1779682684215441215,imu_link,0.006349664181470871,-0.006131388247013092,0.5541053414344788,0.8323944807052612,0.0024999999441206455,0.0,0.0,0.0,0.0024999999441206455,0.0,0.0,0.0,0.0024999999441206455,0.0,0.0,0.0,0.019999999552965164,0.0,0.0,0.0,0.019999999552965164,0.0,0.0,0.0,0.019999999552965164,0.16819266974925995,0.028730420395731926,9.679159164428711,0.03999999910593033,0.0,0.0,0.0,0.03999999910593033,0.0,0.0,0.0,0.03999999910593033
1779682684247384181,857252,1779682684220441215,imu_link,0.005849864333868027,-0.006115893833339214,0.5541095733642578,0.8323954939842224,0.0024999999441206455,0.0,0.0,0.0,0.0024999999441206455,0.0,0.0,0.0,0.0024999999441206455,0.0,0.0,0.0,0.019999999552965164,0.0,0.0,0.0,0.019999999552965164,0.0,0.0,0.0,0.019999999552965164,0.15981295704841614,0.02693476900458336,9.660005569458008,0.03999999910593033,0.0,0.0,0.0,0.03999999910593033,0.0,0.0,0.0,0.03999999910593033
1779682684252666081,857253,1779682684225441215,imu_link,0.005849864333868027,-0.006115893833339214,0.5541095733642578,0.8323954939842224,0.0024999999441206455,0.0,0.0,0.0,0.0024999999441206455,0.0,0.0,0.0,0.0024999999441206455,0.0,0.0,0.0,0.019999999552965164,0.0,0.0,0.0,0.019999999552965164,0.0,0.0,0.0,0.019999999552965164,0.15981295704841614,0.02693476900458336,9.660005569458008,0.03999999910593033,0.0,0.0,0.0,0.03999999910593033,0.0,0.0,0.0,0.03999999910593033
1779682684274262145,857254,1779682684261441215,imu_link,0.006982224527746439,-0.009584812447428703,0.5541016459465027,0.8323593735694885,0.0024999999441206455,0.0,0.0,0.0,0.0024999999441206455,0.0,0.0,0.0,0.0024999999441206455,0.0,0.0,0.0,0.019999999552965164,0.0,0.0,0.0,0.019999999552965164,0.0,0.0,0.0,0.019999999552965164,0.18315643072128296,0.021547814831137657,9.543288230895996,0.03999999910593033,0.0,0.0,0.0,0.03999999910593033,0.0,0.0,0.0,0.03999999910593033
1779682684279772228,857255,1779682684263441215,imu_link,0.006758247036486864,-0.008923635818064213,0.5541038513183594,0.8323671817779541,0.0024999999441206455,0.0,0.0,0.0,0.0024999999441206455,0.0,0.0,0.0,0.0024999999441206455,0.0,0.0,0.0,0.019999999552965164,0.0,0.0,0.0,0.019999999552965164,0.0,0.0,0.0,0.019999999552965164,0.1586158573627472,0.028131868690252304,9.618704795837402,0.03999999910593033,0.0,0.0,0.0,0.03999999910593033,0.0,0.0,0.0,0.03999999910593033
1779682684285902464,857256,1779682684268441215,imu_link,0.006373950280249119,-0.008601340465247631,0.5541078448295593,0.8323708772659302,0.0024999999441206455,0.0,0.0,0.0,0.0024999999441206455,0.0,0.0,0.0,0.0024999999441206455,0.0,0.0,0.0,0.019999999552965164,0.0,0.0,0.0,0.019999999552965164,0.0,0.0,0.0,0.019999999552965164,0.16579847037792206,-0.0011971008498221636,9.591172218322754,0.03999999910593033,0.0,0.0,0.0,0.03999999910593033,0.0,0.0,0.0,0.03999999910593033
1779682684291986635,857257,1779682684273441215,imu_link,0.00609474116936326,-0.00818588212132454,0.554110586643219,0.8323754072189331,0.0024999999441206455,0.0,0.0,0.0,0.0024999999441206455,0.0,0.0,0.0,0.0024999999441206455,0.0,0.0,0.0,0.019999999552965164,0.0,0.0,0.0,0.019999999552965164,0.0,0.0,0.0,0.019999999552965164,0.15143325924873352,0.010175356641411781,9.654019355773926,0.03999999910593033,0.0,0.0,0.0,0.03999999910593033,0.0,0.0,0.0,0.03999999910593033
1779682684296442789,857258,1779682684278441215,imu_link,0.00609474116936326,-0.00818588212132454,0.554110586643219,0.8323754072189331,0.0024999999441206455,0.0,0.0,0.0,0.0024999999441206455,0.0,0.0,0.0,0.0024999999441206455,0.0,0.0,0.0,0.019999999552965164,0.0,0.0,0.0,0.019999999552965164,0.0,0.0,0.0,0.019999999552965164,0.15143325924873352,0.010175356641411781,9.654019355773926,0.03999999910593033,0.0,0.0,0.0,0.03999999910593033,0.0,0.0,0.0,0.03999999910593033
1779682684302904208,857259,1779682684283441215,imu_link,0.006075054872781038,-0.007441975176334381,0.5541102290153503,0.8323827981948853,0.0024999999441206455,0.0,0.0,0.0,0.0024999999441206455,0.0,0.0,0.0,0.0024999999441206455,0.0,0.0,0.0,0.019999999552965164,0.0,0.0,0.0,0.019999999552965164,0.0,0.0,0.0,0.019999999552965164,0.1538274586200714,0.03711012750864029,9.635464668273926,0.03999999910593033,0.0,0.0,0.0,0.03999999910593033,0.0,0.0,0.0,0.03999999910593033
1779682684308249827,857260,1779682684288441215,imu_link,0.0064079733565449715,-0.006782270967960358,0.5541062355041504,0.8323884606361389,0.0024999999441206455,0.0,0.0,0.0,0.0024999999441206455,0.0,0.0,0.0,0.0024999999441206455,0.0,0.0,0.0,0.019999999552965164,0.0,0.0,0.0,0.019999999552965164,0.0,0.0,0.0,0.019999999552965164,0.17657236754894257,0.02992752008140087,9.589376449584961,0.03999999910593033,0.0,0.0,0.0,0.03999999910593033,0.0,0.0,0.0,0.03999999910593033
1779682684330634536,857261,1779682684298441215,imu_link,0.005488527473062277,-0.006927951704710722,0.5541147589683533,0.8323882818222046,0.0024999999441206455,0.0,0.0,0.0,0.0024999999441206455,0.0,0.0,0.0,0.0024999999441206455,0.0,0.0,0.0,0.019999999552965164,0.0,0.0,0.0,0.019999999552965164,0.0,0.0,0.0,0.019999999552965164,0.16400282084941864,0.0017956512747332454,9.627683639526367,0.03999999910593033,0.0,0.0,0.0,0.03999999910593033,0.0,0.0,0.0,0.03999999910593033
1779682684353319678,857262,1779682684346441215,imu_link,0.0014358359621837735,-0.005254980176687241,0.5541438460350037,0.8323978781700134,0.0024999999441206455,0.0,0.0,0.0,0.0024999999441206455,0.0,0.0,0.0,0.0024999999441206455,0.0,0.0,0.0,0.019999999552965164,0.0,0.0,0.0,0.019999999552965164,0.0,0.0,0.0,0.019999999552965164,0.15801730751991272,0.005985504016280174,9.652822494506836,0.03999999910593033,0.0,0.0,0.0,0.03999999910593033,0.0,0.0,0.0,0.03999999910593033
1779682684359173064,857263,1779682684348441215,imu_link,0.002086368855088949,-0.005484908353537321,0.5541399717330933,0.8323976397514343,0.0024999999441206455,0.0,0.0,0.0,0.0024999999441206455,0.0,0.0,0.0,0.0024999999441206455,0.0,0.0,0.0,0.019999999552965164,0.0,0.0,0.0,0.019999999552965164,0.0,0.0,0.0,0.019999999552965164,0.1801636815071106,0.02753331884741783,9.617507934570312,0.03999999910593033,0.0,0.0,0.0,0.03999999910593033,0.0,0.0,0.0,0.03999999910593033
1779682684364823538,857264,1779682684353441215,imu_link,0.002086368855088949,-0.005484908353537321,0.5541399717330933,0.8323976397514343,0.0024999999441206455,0.0,0.0,0.0,0.0024999999441206455,0.0,0.0,0.0,0.0024999999441206455,0.0,0.0,0.0,0.019999999552965164,0.0,0.0,0.0,0.019999999552965164,0.0,0.0,0.0,0.019999999552965164,0.1801636815071106,0.02753331884741783,9.617507934570312,0.03999999910593033,0.0,0.0,0.0,0.03999999910593033,0.0,0.0,0.0,0.03999999910593033
1779682684371208761,857265,1779682684358441215,imu_link,0.002803580369800329,-0.005687075667083263,0.5541353821754456,0.8323971629142761,0.0024999999441206455,0.0,0.0,0.0,0.0024999999441206455,0.0,0.0,0.0,0.0024999999441206455,0.0,0.0,0.0,0.019999999552965164,0.0,0.0,0.0,0.019999999552965164,0.0,0.0,0.0,0.019999999552965164,0.16579847037792206,0.02274491637945175,9.615114212036133,0.03999999910593033,0.0,0.0,0.0,0.03999999910593033,0.0,0.0,0.0,0.03999999910593033
1779682684375741253,857266,1779682684363441215,imu_link,0.0034084024373441935,-0.006114887073636055,0.5541311502456665,0.8323948383331299,0.0024999999441206455,0.0,0.0,0.0,0.0024999999441206455,0.0,0.0,0.0,0.0024999999441206455,0.0,0.0,0.0,0.019999999552965164,0.0,0.0,0.0,0.019999999552965164,0.0,0.0,0.0,0.019999999552965164,0.18495208024978638,0.008978256024420261,9.610325813293457,0.03999999910593033,0.0,0.0,0.0,0.03999999910593033,0.0,0.0,0.0,0.03999999910593033
1779682684382446467,857267,1779682684368441215,imu_link,0.0034084024373441935,-0.006114887073636055,0.5541311502456665,0.8323948383331299,0.0024999999441206455,0.0,0.0,0.0,0.0024999999441206455,0.0,0.0,0.0,0.0024999999441206455,0.0,0.0,0.0,0.019999999552965164,0.0,0.0,0.0,0.019999999552965164,0.0,0.0,0.0,0.019999999552965164,0.18495208024978638,0.008978256024420261,9.610325813293457,0.03999999910593033,0.0,0.0,0.0,0.03999999910593033,0.0,0.0,0.0,0.03999999910593033
1779682684388579110,857268,1779682684373441215,imu_link,0.004067644942551851,-0.006462163291871548,0.5541261434555054,0.8323925137519836,0.0024999999441206455,0.0,0.0,0.0,0.0024999999441206455,0.0,0.0,0.0,0.0024999999441206455,0.0,0.0,0.0,0.019999999552965164,0.0,0.0,0.0,0.019999999552965164,0.0,0.0,0.0,0.019999999552965164,0.18974047899246216,0.019153613597154617,9.66958236694336,0.03999999910593033,0.0,0.0,0.0,0.03999999910593033,0.0,0.0,0.0,0.03999999910593033
1779682684412755944,857269,1779682684382441215,imu_link,0.005237357225269079,-0.006413680966943502,0.5541168451309204,0.8323925137519836,0.0024999999441206455,0.0,0.0,0.0,0.0024999999441206455,0.0,0.0,0.0,0.0024999999441206455,0.0,0.0,0.0,0.019999999552965164,0.0,0.0,0.0,0.019999999552965164,0.0,0.0,0.0,0.019999999552965164,0.16340425610542297,0.023942016065120697,9.600749015808105,0.03999999910593033,0.0,0.0,0.0,0.03999999910593033,0.0,0.0,0.0,0.03999999910593033
1779682684419213938,857270,1779682684387441215,imu_link,0.005237357225269079,-0.006413680966943502,0.5541168451309204,0.8323925137519836,0.0024999999441206455,0.0,0.0,0.0,0.0024999999441206455,0.0,0.0,0.0,0.0024999999441206455,0.0,0.0,0.0,0.019999999552965164,0.0,0.0,0.0,0.019999999552965164,0.0,0.0,0.0,0.019999999552965164,0.16340425610542297,0.023942016065120697,9.600749015808105,0.03999999910593033,0.0,0.0,0.0,0.03999999910593033,0.0,0.0,0.0,0.03999999910593033
1779682684440551867,857271,1779682684426441215,imu_link,0.004513229243457317,-0.010250749997794628,0.5541216731071472,0.8323551416397095,0.0024999999441206455,0.0,0.0,0.0,0.0024999999441206455,0.0,0.0,0.0,0.0024999999441206455,0.0,0.0,0.0,0.019999999552965164,0.0,0.0,0.0,0.019999999552965164,0.0,0.0,0.0,0.019999999552965164,0.1759738177061081,-0.0017956512747332454,9.603142738342285,0.03999999910593033,0.0,0.0,0.0,0.03999999910593033,0.0,0.0,0.0,0.03999999910593033
1779682684446212838,857272,1779682684428441215,imu_link,0.004678721074014902,-0.00958701316267252,0.5541210174560547,0.8323625922203064,0.0024999999441206455,0.0,0.0,0.0,0.0024999999441206455,0.0,0.0,0.0,0.0024999999441206455,0.0,0.0,0.0,0.019999999552965164,0.0,0.0,0.0,0.019999999552965164,0.0,0.0,0.0,0.019999999552965164,0.1496376097202301,0.03232172131538391,9.64803409576416,0.03999999910593033,0.0,0.0,0.0,0.03999999910593033,0.0,0.0,0.0,0.03999999910593033
1779682684451641758,857273,1779682684433441215,imu_link,0.004678721074014902,-0.00958701316267252,0.5541210174560547,0.8323625922203064,0.0024999999441206455,0.0,0.0,0.0,0.0024999999441206455,0.0,0.0,0.0,0.0024999999441206455,0.0,0.0,0.0,0.019999999552965164,0.0,0.0,0.0,0.019999999552965164,0.0,0.0,0.0,0.019999999552965164,0.1496376097202301,0.03232172131538391,9.64803409576416,0.03999999910593033,0.0,0.0,0.0,0.03999999910593033,0.0,0.0,0.0,0.03999999910593033
1779682684457910184,857274,1779682684438441215,imu_link,0.005037182010710239,-0.008935053832828999,0.5541180372238159,0.8323698043823242,0.0024999999441206455,0.0,0.0,0.0,0.0024999999441206455,0.0,0.0,0.0,0.0024999999441206455,0.0,0.0,0.0,0.019999999552965164,0.0,0.0,0.0,0.019999999552965164,0.0,0.0,0.0,0.019999999552965164,0.18974047899246216,0.0,9.646238327026367,0.03999999910593033,0.0,0.0,0.0,0.03999999910593033,0.0,0.0,0.0,0.03999999910593033
1779682684463750728,857275,1779682684443441215,imu_link,0.00503924023360014,-0.008195104077458382,0.5541183948516846,0.8323771357536316,0.0024999999441206455,0.0,0.0,0.0,0.0024999999441206455,0.0,0.0,0.0,0.0024999999441206455,0.0,0.0,0.0,0.019999999552965164,0.0,0.0,0.0,0.019999999552965164,0.0,0.0,0.0,0.019999999552965164,0.17178396880626678,0.0017956512747332454,9.588178634643555,0.03999999910593033,0.0,0.0,0.0,0.03999999910593033,0.0,0.0,0.0,0.03999999910593033
1779682684469705399,857276,1779682684448441215,imu_link,0.005496492609381676,-0.007992882281541824,0.5541139841079712,0.8323791027069092,0.0024999999441206455,0.0,0.0,0.0,0.0024999999441206455,0.0,0.0,0.0,0.0024999999441206455,0.0,0.0,0.0,0.019999999552965164,0.0,0.0,0.0,0.019999999552965164,0.0,0.0,0.0,0.019999999552965164,0.19273322820663452,0.03711012750864029,9.628880500793457,0.03999999910593033,0.0,0.0,0.0,0.03999999910593033,0.0,0.0,0.0,0.03999999910593033
1779682684475347868,857277,1779682684453441215,imu_link,0.005496492609381676,-0.007992882281541824,0.5541139841079712,0.8323791027069092,0.0024999999441206455,0.0,0.0,0.0,0.0024999999441206455,0.0,0.0,0.0,0.0024999999441206455,0.0,0.0,0.0,0.019999999552965164,0.0,0.0,0.0,0.019999999552965164,0.0,0.0,0.0,0.019999999552965164,0.19273322820663452,0.03711012750864029,9.628880500793457,0.03999999910593033,0.0,0.0,0.0,0.03999999910593033,0.0,0.0,0.0,0.03999999910593033
1779682684514173603,857278,1779682684507441215,imu_link,0.0030434424988925457,-0.0035620005801320076,0.5541275143623352,0.8324135541915894,0.0024999999441206455,0.0,0.0,0.0,0.0024999999441206455,0.0,0.0,0.0,0.0024999999441206455,0.0,0.0,0.0,0.019999999552965164,0.0,0.0,0.0,0.019999999552965164,0.0,0.0,0.0,0.019999999552965164,0.16101005673408508,0.014365210197865963,9.62947940826416,0.03999999910593033,0.0,0.0,0.0,0.03999999910593033,0.0,0.0,0.0,0.03999999910593033
1779682684519508010,857279,1779682684509441215,imu_link,0.003380961250513792,-0.0041602058336138725,0.5541260838508606,0.8324102759361267,0.0024999999441206455,0.0,0.0,0.0,0.0024999999441206455,0.0,0.0,0.0,0.0024999999441206455,0.0,0.0,0.0,0.019999999552965164,0.0,0.0,0.0,0.019999999552965164,0.0,0.0,0.0,0.019999999552965164,0.16160860657691956,0.005386953707784414,9.585784912109375,0.03999999910593033,0.0,0.0,0.0,0.03999999910593033,0.0,0.0,0.0,0.03999999910593033
1779682684525124198,857280,1779682684514441215,imu_link,0.0037008090876042843,-0.004544077906757593,0.5541244745254517,0.8324079513549805,0.0024999999441206455,0.0,0.0,0.0,0.0024999999441206455,0.0,0.0,0.0,0.0024999999441206455,0.0,0.0,0.0,0.019999999552965164,0.0,0.0,0.0,0.019999999552965164,0.0,0.0,0.0,0.019999999552965164,0.1562216579914093,0.015562310814857483,9.636661529541016,0.03999999910593033,0.0,0.0,0.0,0.03999999910593033,0.0,0.0,0.0,0.03999999910593033
1779682684530706388,857281,1779682684519441215,imu_link,0.0037008090876042843,-0.004544077906757593,0.5541244745254517,0.8324079513549805,0.0024999999441206455,0.0,0.0,0.0,0.0024999999441206455,0.0,0.0,0.0,0.0024999999441206455,0.0,0.0,0.0,0.019999999552965164,0.0,0.0,0.0,0.019999999552965164,0.0,0.0,0.0,0.019999999552965164,0.1562216579914093,0.015562310814857483,9.636661529541016,0.03999999910593033,0.0,0.0,0.0,0.03999999910593033,0.0,0.0,0.0,0.03999999910593033
1779682684536201985,857282,1779682684524441215,imu_link,0.004266576375812292,-0.0050283572636544704,0.5541213154792786,0.832404613494873,0.0024999999441206455,0.0,0.0,0.0,0.0024999999441206455,0.0,0.0,0.0,0.0024999999441206455,0.0,0.0,0.0,0.019999999552965164,0.0,0.0,0.0,0.019999999552965164,0.0,0.0,0.0,0.019999999552965164,0.181959331035614,0.030526071786880493,9.624092102050781,0.03999999910593033,0.0,0.0,0.0,0.03999999910593033,0.0,0.0,0.0,0.03999999910593033
1779682684541899518,857283,1779682684529441215,imu_link,0.005002164747565985,-0.004944473970681429,0.5541162490844727,0.8324043154716492,0.0024999999441206455,0.0,0.0,0.0,0.0024999999441206455,0.0,0.0,0.0,0.0024999999441206455,0.0,0.0,0.0,0.019999999552965164,0.0,0.0,0.0,0.019999999552965164,0.0,0.0,0.0,0.019999999552965164,0.14903905987739563,0.058059390634298325,9.683947563171387,0.03999999910593033,0.0,0.0,0.0,0.03999999910593033,0.0,0.0,0.0,0.03999999910593033
1779682684547797520,857284,1779682684534441215,imu_link,0.005002164747565985,-0.004944473970681429,0.5541162490844727,0.8324043154716492,0.0024999999441206455,0.0,0.0,0.0,0.0024999999441206455,0.0,0.0,0.0,0.0024999999441206455,0.0,0.0,0.0,0.019999999552965164,0.0,0.0,0.0,0.019999999552965164,0.0,0.0,0.0,0.019999999552965164,0.14903905987739563,0.058059390634298325,9.683947563171387,0.03999999910593033,0.0,0.0,0.0,0.03999999910593033,0.0,0.0,0.0,0.03999999910593033
1779682684570663926,857285,1779682684543441215,imu_link,0.0055250790901482105,-0.006272846832871437,0.5541139841079712,0.8323935866355896,0.0024999999441206455,0.0,0.0,0.0,0.0024999999441206455,0.0,0.0,0.0,0.0024999999441206455,0.0,0.0,0.0,0.019999999552965164,0.0,0.0,0.0,0.019999999552965164,0.0,0.0,0.0,0.019999999552965164,0.1867477297782898,0.015562310814857483,9.620500564575195,0.03999999910593033,0.0,0.0,0.0,0.03999999910593033,0.0,0.0,0.0,0.03999999910593033
1779682684576963893,857286,1779682684548441215,imu_link,0.0055250790901482105,-0.006272846832871437,0.5541139841079712,0.8323935866355896,0.0024999999441206455,0.0,0.0,0.0,0.0024999999441206455,0.0,0.0,0.0,0.0024999999441206455,0.0,0.0,0.0,0.019999999552965164,0.0,0.0,0.0,0.019999999552965164,0.0,0.0,0.0,0.019999999552965164,0.1867477297782898,0.015562310814857483,9.620500564575195,0.03999999910593033,0.0,0.0,0.0,0.03999999910593033,0.0,0.0,0.0,0.03999999910593033
1779682684582178206,857287,1779682684553441215,imu_link,0.005890622269362211,-0.00692138634622097,0.5541115999221802,0.8323876261711121,0.0024999999441206455,0.0,0.0,0.0,0.0024999999441206455,0.0,0.0,0.0,0.0024999999441206455,0.0,0.0,0.0,0.019999999552965164,0.0,0.0,0.0,0.019999999552965164,0.0,0.0,0.0,0.019999999552965164,0.18614917993545532,0.01975216343998909,9.655815124511719,0.03999999910593033,0.0,0.0,0.0,0.03999999910593033,0.0,0.0,0.0,0.03999999910593033
1779682684588188930,857288,1779682684558441215,imu_link,0.006588265299797058,-0.0066670761443674564,0.5541048049926758,0.8323888778686523,0.0024999999441206455,0.0,0.0,0.0,0.0024999999441206455,0.0,0.0,0.0,0.0024999999441206455,0.0,0.0,0.0,0.019999999552965164,0.0,0.0,0.0,0.019999999552965164,0.0,0.0,0.0,0.019999999552965164,0.17836801707744598,0.041299980133771896,9.600749015808105,0.03999999910593033,0.0,0.0,0.0,0.03999999910593033,0.0,0.0,0.0,0.03999999910593033
1779682684610072242,857289,1779682684596441215,imu_link,0.004221509676426649,-0.008987263776361942,0.5541277527809143,0.8323672413825989,0.0024999999441206455,0.0,0.0,0.0,0.0024999999441206455,0.0,0.0,0.0,0.0024999999441206455,0.0,0.0,0.0,0.019999999552965164,0.0,0.0,0.0,0.019999999552965164,0.0,0.0,0.0,0.019999999552965164,0.181959331035614,0.012569558806717396,9.659406661987305,0.03999999910593033,0.0,0.0,0.0,0.03999999910593033,0.0,0.0,0.0,0.03999999910593033
1779682684615570443,857290,1779682684598441215,imu_link,0.004361714236438274,-0.008315960876643658,0.5541272759437561,0.8323739171028137,0.0024999999441206455,0.0,0.0,0.0,0.0024999999441206455,0.0,0.0,0.0,0.0024999999441206455,0.0,0.0,0.0,0.019999999552965164,0.0,0.0,0.0,0.019999999552965164,0.0,0.0,0.0,0.019999999552965164,0.15083470940589905,0.011372458189725876,9.670180320739746,0.03999999910593033,0.0,0.0,0.0,0.03999999910593033,0.0,0.0,0.0,0.03999999910593033
1779682684623755599,857291,1779682684603441215,imu_link,0.004361714236438274,-0.008315960876643658,0.5541272759437561,0.8323739171028137,0.0024999999441206455,0.0,0.0,0.0,0.0024999999441206455,0.0,0.0,0.0,0.0024999999441206455,0.0,0.0,0.0,0.019999999552965164,0.0,0.0,0.0,0.019999999552965164,0.0,0.0,0.0,0.019999999552965164,0.15083470940589905,0.011372458189725876,9.670180320739746,0.03999999910593033,0.0,0.0,0.0,0.03999999910593033,0.0,0.0,0.0,0.03999999910593033
1779682684630228519,857292,1779682684608441215,imu_link,0.0049843452870845795,-0.00790766067802906,0.5541216731071472,0.832378089427948,0.0024999999441206455,0.0,0.0,0.0,0.0024999999441206455,0.0,0.0,0.0,0.0024999999441206455,0.0,0.0,0.0,0.019999999552965164,0.0,0.0,0.0,0.019999999552965164,0.0,0.0,0.0,0.019999999552965164,0.17956513166427612,0.032920271158218384,9.59296703338623,0.03999999910593033,0.0,0.0,0.0,0.03999999910593033,0.0,0.0,0.0,0.03999999910593033
1779682684635749446,857293,1779682684613441215,imu_link,0.0047665005549788475,-0.007200493942946196,0.5541236996650696,0.8323843479156494,0.0024999999441206455,0.0,0.0,0.0,0.0024999999441206455,0.0,0.0,0.0,0.0024999999441206455,0.0,0.0,0.0,0.019999999552965164,0.0,0.0,0.0,0.019999999552965164,0.0,0.0,0.0,0.019999999552965164,0.16220715641975403,0.0011971008498221636,9.709684371948242,0.03999999910593033,0.0,0.0,0.0,0.03999999910593033,0.0,0.0,0.0,0.03999999910593033
1779682684641892604,857294,1779682684618441215,imu_link,0.0047665005549788475,-0.007200493942946196,0.5541236996650696,0.8323843479156494,0.0024999999441206455,0.0,0.0,0.0,0.0024999999441206455,0.0,0.0,0.0,0.0024999999441206455,0.0,0.0,0.0,0.019999999552965164,0.0,0.0,0.0,0.019999999552965164,0.0,0.0,0.0,0.019999999552965164,0.16220715641975403,0.0011971008498221636,9.709684371948242,0.03999999910593033,0.0,0.0,0.0,0.03999999910593033,0.0,0.0,0.0,0.03999999910593033
1779682684647917833,857295,1779682684623441215,imu_link,0.005479627754539251,-0.006976562086492777,0.5541173815727234,0.8323860764503479,0.0024999999441206455,0.0,0.0,0.0,0.0024999999441206455,0.0,0.0,0.0,0.0024999999441206455,0.0,0.0,0.0,0.019999999552965164,0.0,0.0,0.0,0.019999999552965164,0.0,0.0,0.0,0.019999999552965164,0.17178396880626678,0.018555063754320145,9.625887870788574,0.03999999910593033,0.0,0.0,0.0,0.03999999910593033,0.0,0.0,0.0,0.03999999910593033
1779682684688354652,857296,1779682684679441215,imu_link,0.0031595248728990555,-0.002121846191585064,0.5541265606880188,0.8324186205863953,0.0024999999441206455,0.0,0.0,0.0,0.0024999999441206455,0.0,0.0,0.0,0.0024999999441206455,0.0,0.0,0.0,0.019999999552965164,0.0,0.0,0.0,0.019999999552965164,0.0,0.0,0.0,0.019999999552965164,0.15981295704841614,0.014963760040700436,9.647435188293457,0.03999999910593033,0.0,0.0,0.0,0.03999999910593033,0.0,0.0,0.0,0.03999999910593033
1779682684693742978,857297,1779682684681441215,imu_link,0.0034188288263976574,-0.002758434973657131,0.5541264414787292,0.832415759563446,0.0024999999441206455,0.0,0.0,0.0,0.0024999999441206455,0.0,0.0,0.0,0.0024999999441206455,0.0,0.0,0.0,0.019999999552965164,0.0,0.0,0.0,0.019999999552965164,0.0,0.0,0.0,0.019999999552965164,0.16160860657691956,0.008978256024420261,9.640253067016602,0.03999999910593033,0.0,0.0,0.0,0.03999999910593033,0.0,0.0,0.0,0.03999999910593033
1779682684699565529,857298,1779682684686441215,imu_link,0.003715077182278037,-0.003161311848089099,0.5541257262229919,0.8324135541915894,0.0024999999441206455,0.0,0.0,0.0,0.0024999999441206455,0.0,0.0,0.0,0.0024999999441206455,0.0,0.0,0.0,0.019999999552965164,0.0,0.0,0.0,0.019999999552965164,0.0,0.0,0.0,0.019999999552965164,0.1777694672346115,0.02992752008140087,9.636661529541016,0.03999999910593033,0.0,0.0,0.0,0.03999999910593033,0.0,0.0,0.0,0.03999999910593033
1779682684705224885,857299,1779682684691441215,imu_link,0.003715077182278037,-0.003161311848089099,0.5541257262229919,0.8324135541915894,0.0024999999441206455,0.0,0.0,0.0,0.0024999999441206455,0.0,0.0,0.0,0.0024999999441206455,0.0,0.0,0.0,0.019999999552965164,0.0,0.0,0.0,0.019999999552965164,0.0,0.0,0.0,0.019999999552965164,0.1777694672346115,0.02992752008140087,9.636661529541016,0.03999999910593033,0.0,0.0,0.0,0.03999999910593033,0.0,0.0,0.0,0.03999999910593033
1779682684710249810,857300,1779682684696441215,imu_link,0.004281649831682444,-0.003644987242296338,0.5541235208511353,0.8324102163314819,0.0024999999441206455,0.0,0.0,0.0,0.0024999999441206455,0.0,0.0,0.0,0.0024999999441206455,0.0,0.0,0.0,0.019999999552965164,0.0,0.0,0.0,0.019999999552965164,0.0,0.0,0.0,0.019999999552965164,0.15322890877723694,0.04369417950510979,9.661800384521484,0.03999999910593033,0.0,0.0,0.0,0.03999999910593033,0.0,0.0,0.0,0.03999999910593033
1779682684716494169,857301,1779682684701441215,imu_link,0.004556222818791866,-0.0043328553438186646,0.5541229248046875,0.8324058055877686,0.0024999999441206455,0.0,0.0,0.0,0.0024999999441206455,0.0,0.0,0.0,0.0024999999441206455,0.0,0.0,0.0,0.019999999552965164,0.0,0.0,0.0,0.019999999552965164,0.0,0.0,0.0,0.019999999552965164,0.17477671802043915,0.014963760040700436,9.64683723449707,0.03999999910593033,0.0,0.0,0.0,0.03999999910593033,0.0,0.0,0.0,0.03999999910593033
1779682684722113807,857302,1779682684706441215,imu_link,0.004556222818791866,-0.0043328553438186646,0.5541229248046875,0.8324058055877686,0.0024999999441206455,0.0,0.0,0.0,0.0024999999441206455,0.0,0.0,0.0,0.0024999999441206455,0.0,0.0,0.0,0.019999999552965164,0.0,0.0,0.0,0.019999999552965164,0.0,0.0,0.0,0.019999999552965164,0.17477671802043915,0.014963760040700436,9.64683723449707,0.03999999910593033,0.0,0.0,0.0,0.03999999910593033,0.0,0.0,0.0,0.03999999910593033
1779682684746637222,857303,1779682684715441215,imu_link,0.005339748226106167,-0.005436727311462164,0.5541189312934875,0.8323974013328552,0.0024999999441206455,0.0,0.0,0.0,0.0024999999441206455,0.0,0.0,0.0,0.0024999999441206455,0.0,0.0,0.0,0.019999999552965164,0.0,0.0,0.0,0.019999999552965164,0.0,0.0,0.0,0.019999999552965164,0.16579847037792206,0.035913024097681046,9.648633003234863,0.03999999910593033,0.0,0.0,0.0,0.03999999910593033,0.0,0.0,0.0,0.03999999910593033
1779682684752751539,857304,1779682684720441215,imu_link,0.005339748226106167,-0.005436727311462164,0.5541189312934875,0.8323974013328552,0.0024999999441206455,0.0,0.0,0.0,0.0024999999441206455,0.0,0.0,0.0,0.0024999999441206455,0.0,0.0,0.0,0.019999999552965164,0.0,0.0,0.0,0.019999999552965164,0.0,0.0,0.0,0.019999999552965164,0.16579847037792206,0.035913024097681046,9.648633003234863,0.03999999910593033,0.0,0.0,0.0,0.03999999910593033,0.0,0.0,0.0,0.03999999910593033
1779682684774459537,857305,1779682684766441215,imu_link,0.005392224527895451,-0.010036773979663849,0.554119348526001,0.8323541879653931,0.0024999999441206455,0.0,0.0,0.0,0.0024999999441206455,0.0,0.0,0.0,0.0024999999441206455,0.0,0.0,0.0,0.019999999552965164,0.0,0.0,0.0,0.019999999552965164,0.0,0.0,0.0,0.019999999552965164,0.1909375786781311,-0.002394201699644327,9.660603523254395,0.03999999910593033,0.0,0.0,0.0,0.03999999910593033,0.0,0.0,0.0,0.03999999910593033
1779682684780160650,857306,1779682684768441215,imu_link,0.005419562570750713,-0.009351186454296112,0.5541195869445801,0.8323616981506348,0.0024999999441206455,0.0,0.0,0.0,0.0024999999441206455,0.0,0.0,0.0,0.0024999999441206455,0.0,0.0,0.0,0.019999999552965164,0.0,0.0,0.0,0.019999999552965164,0.0,0.0,0.0,0.019999999552965164,0.17058686912059784,0.014365210197865963,9.652223587036133,0.03999999910593033,0.0,0.0,0.0,0.03999999910593033,0.0,0.0,0.0,0.03999999910593033
1779682684785602538,857307,1779682684773441215,imu_link,0.005588232539594173,-0.008880148641765118,0.5541179776191711,0.8323667645454407,0.0024999999441206455,0.0,0.0,0.0,0.0024999999441206455,0.0,0.0,0.0,0.0024999999441206455,0.0,0.0,0.0,0.019999999552965164,0.0,0.0,0.0,0.019999999552965164,0.0,0.0,0.0,0.019999999552965164,0.17537526786327362,0.030526071786880493,9.625288963317871,0.03999999910593033,0.0,0.0,0.0,0.03999999910593033,0.0,0.0,0.0,0.03999999910593033
1779682684791263514,857308,1779682684778441215,imu_link,0.005588232539594173,-0.008880148641765118,0.5541179776191711,0.8323667645454407,0.0024999999441206455,0.0,0.0,0.0,0.0024999999441206455,0.0,0.0,0.0,0.0024999999441206455,0.0,0.0,0.0,0.019999999552965164,0.0,0.0,0.0,0.019999999552965164,0.0,0.0,0.0,0.019999999552965164,0.17537526786327362,0.030526071786880493,9.625288963317871,0.03999999910593033,0.0,0.0,0.0,0.03999999910593033,0.0,0.0,0.0,0.03999999910593033
1779682684797415287,857309,1779682684783441215,imu_link,0.005747511051595211,-0.008153211325407028,0.554116427898407,0.8323742747306824,0.0024999999441206455,0.0,0.0,0.0,0.0024999999441206455,0.0,0.0,0.0,0.0024999999441206455,0.0,0.0,0.0,0.019999999552965164,0.0,0.0,0.0,0.019999999552965164,0.0,0.0,0.0,0.019999999552965164,0.16819266974925995,0.02992752008140087,9.632472038269043,0.03999999910593033,0.0,0.0,0.0,0.03999999910593033,0.0,0.0,0.0,0.03999999910593033
1779682684804660999,857310,1779682684788441215,imu_link,0.005489691626280546,-0.007459321524947882,0.5541186332702637,0.832381010055542,0.0024999999441206455,0.0,0.0,0.0,0.0024999999441206455,0.0,0.0,0.0,0.0024999999441206455,0.0,0.0,0.0,0.019999999552965164,0.0,0.0,0.0,0.019999999552965164,0.0,0.0,0.0,0.019999999552965164,0.1759738177061081,0.008978256024420261,9.639654159545898,0.03999999910593033,0.0,0.0,0.0,0.03999999910593033,0.0,0.0,0.0,0.03999999910593033
1779682684808610015,857311,1779682684793441215,imu_link,0.005489691626280546,-0.007459321524947882,0.5541186332702637,0.832381010055542,0.0024999999441206455,0.0,0.0,0.0,0.0024999999441206455,0.0,0.0,0.0,0.0024999999441206455,0.0,0.0,0.0,0.019999999552965164,0.0,0.0,0.0,0.019999999552965164,0.0,0.0,0.0,0.019999999552965164,0.1759738177061081,0.008978256024420261,9.639654159545898,0.03999999910593033,0.0,0.0,0.0,0.03999999910593033,0.0,0.0,0.0,0.03999999910593033
1779682684832112483,857312,1779682684802441215,imu_link,0.005589434411376715,-0.007288102060556412,0.5541175603866577,0.8323826789855957,0.0024999999441206455,0.0,0.0,0.0,0.0024999999441206455,0.0,0.0,0.0,0.0024999999441206455,0.0,0.0,0.0,0.019999999552965164,0.0,0.0,0.0,0.019999999552965164,0.0,0.0,0.0,0.019999999552965164,0.16819266974925995,0.005386953707784414,9.618106842041016,0.03999999910593033,0.0,0.0,0.0,0.03999999910593033,0.0,0.0,0.0,0.03999999910593033
1779682684854253818,857313,1779682684845441215,imu_link,0.0019528091652318835,-0.006186691112816334,0.5541461706161499,0.8323888778686523,0.0024999999441206455,0.0,0.0,0.0,0.0024999999441206455,0.0,0.0,0.0,0.0024999999441206455,0.0,0.0,0.0,0.019999999552965164,0.0,0.0,0.0,0.019999999552965164,0.0,0.0,0.0,0.019999999552965164,0.16998831927776337,0.0065840547904372215,9.619902610778809,0.03999999910593033,0.0,0.0,0.0,0.03999999910593033,0.0,0.0,0.0,0.03999999910593033
1779682684859188005,857314,1779682684847441215,imu_link,0.002638370729982853,-0.006174120586365461,0.5541418194770813,0.8323900699615479,0.0024999999441206455,0.0,0.0,0.0,0.0024999999441206455,0.0,0.0,0.0,0.0024999999441206455,0.0,0.0,0.0,0.019999999552965164,0.0,0.0,0.0,0.019999999552965164,0.0,0.0,0.0,0.019999999552965164,0.15442600846290588,0.018555063754320145,9.651026725769043,0.03999999910593033,0.0,0.0,0.0,0.03999999910593033,0.0,0.0,0.0,0.03999999910593033
1779682684864625087,857315,1779682684852441215,imu_link,0.002638370729982853,-0.006174120586365461,0.5541418194770813,0.8323900699615479,0.0024999999441206455,0.0,0.0,0.0,0.0024999999441206455,0.0,0.0,0.0,0.0024999999441206455,0.0,0.0,0.0,0.019999999552965164,0.0,0.0,0.0,0.019999999552965164,0.0,0.0,0.0,0.019999999552965164,0.15442600846290588,0.018555063754320145,9.651026725769043,0.03999999910593033,0.0,0.0,0.0,0.03999999910593033,0.0,0.0,0.0,0.03999999910593033
1779682684870596035,857316,1779682684857441215,imu_link,0.0033492546062916517,-0.006393784191459417,0.5541366934776306,0.832389235496521,0.0024999999441206455,0.0,0.0,0.0,0.0024999999441206455,0.0,0.0,0.0,0.0024999999441206455,0.0,0.0,0.0,0.019999999552965164,0.0,0.0,0.0,0.019999999552965164,0.0,0.0,0.0,0.019999999552965164,0.17896656692028046,0.018555063754320145,9.634865760803223,0.03999999910593033,0.0,0.0,0.0,0.03999999910593033,0.0,0.0,0.0,0.03999999910593033
1779682684875742602,857317,1779682684862441215,imu_link,0.004080291837453842,-0.006519942078739405,0.5541312098503113,0.8323886394500732,0.0024999999441206455,0.0,0.0,0.0,0.0024999999441206455,0.0,0.0,0.0,0.0024999999441206455,0.0,0.0,0.0,0.019999999552965164,0.0,0.0,0.0,0.019999999552965164,0.0,0.0,0.0,0.019999999552965164,0.17836801707744598,0.02753331884741783,9.64564037322998,0.03999999910593033,0.0,0.0,0.0,0.03999999910593033,0.0,0.0,0.0,0.03999999910593033
1779682684881947533,857318,1779682684867441215,imu_link,0.004080291837453842,-0.006519942078739405,0.5541312098503113,0.8323886394500732,0.0024999999441206455,0.0,0.0,0.0,0.0024999999441206455,0.0,0.0,0.0,0.0024999999441206455,0.0,0.0,0.0,0.019999999552965164,0.0,0.0,0.0,0.019999999552965164,0.0,0.0,0.0,0.019999999552965164,0.17836801707744598,0.02753331884741783,9.64564037322998,0.03999999910593033,0.0,0.0,0.0,0.03999999910593033,0.0,0.0,0.0,0.03999999910593033
1779682684887999064,857319,1779682684872441215,imu_link,0.004825394134968519,-0.0064632887952029705,0.5541253089904785,0.8323889374732971,0.0024999999441206455,0.0,0.0,0.0,0.0024999999441206455,0.0,0.0,0.0,0.0024999999441206455,0.0,0.0,0.0,0.019999999552965164,0.0,0.0,0.0,0.019999999552965164,0.0,0.0,0.0,0.019999999552965164,0.16340425610542297,0.02513911761343479,9.55705451965332,0.03999999910593033,0.0,0.0,0.0,0.03999999910593033,0.0,0.0,0.0,0.03999999910593033
1779682684910770465,857320,1779682684881441215,imu_link,0.005947396159172058,-0.006815274246037006,0.5541161298751831,0.8323850631713867,0.0024999999441206455,0.0,0.0,0.0,0.0024999999441206455,0.0,0.0,0.0,0.0024999999441206455,0.0,0.0,0.0,0.019999999552965164,0.0,0.0,0.0,0.019999999552965164,0.0,0.0,0.0,0.019999999552965164,0.16759411990642548,0.019153613597154617,9.624691009521484,0.03999999910593033,0.0,0.0,0.0,0.03999999910593033,0.0,0.0,0.0,0.03999999910593033
1779682684917543763,857321,1779682684886441215,imu_link,0.005947396159172058,-0.006815274246037006,0.5541161298751831,0.8323850631713867,0.0024999999441206455,0.0,0.0,0.0,0.0024999999441206455,0.0,0.0,0.0,0.0024999999441206455,0.0,0.0,0.0,0.019999999552965164,0.0,0.0,0.0,0.019999999552965164,0.0,0.0,0.0,0.019999999552965164,0.16759411990642548,0.019153613597154617,9.624691009521484,0.03999999910593033,0.0,0.0,0.0,0.03999999910593033,0.0,0.0,0.0,0.03999999910593033
1779682684938224249,857322,1779682684926441215,imu_link,0.002658373909071088,-0.009093185886740685,0.5541439056396484,0.8323618769645691,0.0024999999441206455,0.0,0.0,0.0,0.0024999999441206455,0.0,0.0,0.0,0.0024999999441206455,0.0,0.0,0.0,0.019999999552965164,0.0,0.0,0.0,0.019999999552965164,0.0,0.0,0.0,0.019999999552965164,0.17178396880626678,0.014963760040700436,9.567828178405762,0.03999999910593033,0.0,0.0,0.0,0.03999999910593033,0.0,0.0,0.0,0.03999999910593033
1779682684943760191,857323,1779682684928441215,imu_link,0.003256242722272873,-0.008754439651966095,0.554139256477356,0.8323663473129272,0.0024999999441206455,0.0,0.0,0.0,0.0024999999441206455,0.0,0.0,0.0,0.0024999999441206455,0.0,0.0,0.0,0.019999999552965164,0.0,0.0,0.0,0.019999999552965164,0.0,0.0,0.0,0.019999999552965164,0.17956513166427612,0.013766659423708916,9.655815124511719,0.03999999910593033,0.0,0.0,0.0,0.03999999910593033,0.0,0.0,0.0,0.03999999910593033
1779682684949375804,857324,1779682684933441215,imu_link,0.003256242722272873,-0.008754439651966095,0.554139256477356,0.8323663473129272,0.0024999999441206455,0.0,0.0,0.0,0.0024999999441206455,0.0,0.0,0.0,0.0024999999441206455,0.0,0.0,0.0,0.019999999552965164,0.0,0.0,0.0,0.019999999552965164,0.0,0.0,0.0,0.019999999552965164,0.17956513166427612,0.013766659423708916,9.655815124511719,0.03999999910593033,0.0,0.0,0.0,0.03999999910593033,0.0,0.0,0.0,0.03999999910593033
1779682684955153657,857325,1779682684938441215,imu_link,0.003901688614860177,-0.008386272937059402,0.5541340708732605,0.8323708772659302,0.0024999999441206455,0.0,0.0,0.0,0.0024999999441206455,0.0,0.0,0.0,0.0024999999441206455,0.0,0.0,0.0,0.019999999552965164,0.0,0.0,0.0,0.019999999552965164,0.0,0.0,0.0,0.019999999552965164,0.17896656692028046,0.010773907415568829,9.643245697021484,0.03999999910593033,0.0,0.0,0.0,0.03999999910593033,0.0,0.0,0.0,0.03999999910593033
1779682684961083931,857326,1779682684943441215,imu_link,0.004454853944480419,-0.007893593981862068,0.5541295409202576,0.8323759436607361,0.0024999999441206455,0.0,0.0,0.0,0.0024999999441206455,0.0,0.0,0.0,0.0024999999441206455,0.0,0.0,0.0,0.019999999552965164,0.0,0.0,0.0,0.019999999552965164,0.0,0.0,0.0,0.019999999552965164,0.16998831927776337,0.018555063754320145,9.64683723449707,0.03999999910593033,0.0,0.0,0.0,0.03999999910593033,0.0,0.0,0.0,0.03999999910593033
1779682684966677572,857327,1779682684948441215,imu_link,0.004789330530911684,-0.007521846331655979,0.5541266798973083,0.8323794007301331,0.0024999999441206455,0.0,0.0,0.0,0.0024999999441206455,0.0,0.0,0.0,0.0024999999441206455,0.0,0.0,0.0,0.019999999552965164,0.0,0.0,0.0,0.019999999552965164,0.0,0.0,0.0,0.019999999552965164,0.166995570063591,0.015562310814857483,9.638457298278809,0.03999999910593033,0.0,0.0,0.0,0.03999999910593033,0.0,0.0,0.0,0.03999999910593033
1779682684973056017,857328,1779682684953441215,imu_link,0.004789330530911684,-0.007521846331655979,0.5541266798973083,0.8323794007301331,0.0024999999441206455,0.0,0.0,0.0,0.0024999999441206455,0.0,0.0,0.0,0.0024999999441206455,0.0,0.0,0.0,0.019999999552965164,0.0,0.0,0.0,0.019999999552965164,0.0,0.0,0.0,0.019999999552965164,0.166995570063591,0.015562310814857483,9.638457298278809,0.03999999910593033,0.0,0.0,0.0,0.03999999910593033,0.0,0.0,0.0,0.03999999910593033
1779682684996428514,857329,1779682684962441215,imu_link,0.004734741058200598,-0.006919576786458492,0.5541268587112427,0.8323849439620972,0.0024999999441206455,0.0,0.0,0.0,0.0024999999441206455,0.0,0.0,0.0,0.0024999999441206455,0.0,0.0,0.0,0.019999999552965164,0.0,0.0,0.0,0.019999999552965164,0.0,0.0,0.0,0.019999999552965164,0.1646013706922531,0.004788403399288654,9.636661529541016,0.03999999910593033,0.0,0.0,0.0,0.03999999910593033,0.0,0.0,0.0,0.03999999910593033
1779682685017809913,857330,1779682685009441215,imu_link,0.008622879162430763,-0.008505376987159252,0.5540895462036133,0.8323639035224915,0.0024999999441206455,0.0,0.0,0.0,0.0024999999441206455,0.0,0.0,0.0,0.0024999999441206455,0.0,0.0,0.0,0.019999999552965164,0.0,0.0,0.0,0.019999999552965164,0.0,0.0,0.0,0.019999999552965164,0.20769698917865753,0.032920271158218384,9.673771858215332,0.03999999910593033,0.0,0.0,0.0,0.03999999910593033,0.0,0.0,0.0,0.03999999910593033
1779682685023480033,857331,1779682685011441215,imu_link,0.008014692924916744,-0.008182927034795284,0.5540958046913147,0.8323690295219421,0.0024999999441206455,0.0,0.0,0.0,0.0024999999441206455,0.0,0.0,0.0,0.0024999999441206455,0.0,0.0,0.0,0.019999999552965164,0.0,0.0,0.0,0.019999999552965164,0.0,0.0,0.0,0.019999999552965164,0.1604115068912506,0.010773907415568829,9.618106842041016,0.03999999910593033,0.0,0.0,0.0,0.03999999910593033,0.0,0.0,0.0,0.03999999910593033
1779682685029724256,857332,1779682685016441215,imu_link,0.008014692924916744,-0.008182927034795284,0.5540958046913147,0.8323690295219421,0.0024999999441206455,0.0,0.0,0.0,0.0024999999441206455,0.0,0.0,0.0,0.0024999999441206455,0.0,0.0,0.0,0.019999999552965164,0.0,0.0,0.0,0.019999999552965164,0.0,0.0,0.0,0.019999999552965164,0.1604115068912506,0.010773907415568829,9.618106842041016,0.03999999910593033,0.0,0.0,0.0,0.03999999910593033,0.0,0.0,0.0,0.03999999910593033
1779682685034845179,857333,1779682685021441215,imu_link,0.00736544094979763,-0.007818397134542465,0.5541020631790161,0.8323741555213928,0.0024999999441206455,0.0,0.0,0.0,0.0024999999441206455,0.0,0.0,0.0,0.0024999999441206455,0.0,0.0,0.0,0.019999999552965164,0.0,0.0,0.0,0.019999999552965164,0.0,0.0,0.0,0.019999999552965164,0.17956513166427612,0.02214636467397213,9.635464668273926,0.03999999910593033,0.0,0.0,0.0,0.03999999910593033,0.0,0.0,0.0,0.03999999910593033
1779682685040701373,857334,1779682685026441215,imu_link,0.006754559464752674,-0.0073991515673696995,0.554107666015625,0.8323795795440674,0.0024999999441206455,0.0,0.0,0.0,0.0024999999441206455,0.0,0.0,0.0,0.0024999999441206455,0.0,0.0,0.0,0.019999999552965164,0.0,0.0,0.0,0.019999999552965164,0.0,0.0,0.0,0.019999999552965164,0.16879121959209442,0.020350713282823563,9.662399291992188,0.03999999910593033,0.0,0.0,0.0,0.03999999910593033,0.0,0.0,0.0,0.03999999910593033
1779682685046535376,857335,1779682685031441215,imu_link,0.006754559464752674,-0.0073991515673696995,0.554107666015625,0.8323795795440674,0.0024999999441206455,0.0,0.0,0.0,0.0024999999441206455,0.0,0.0,0.0,0.0024999999441206455,0.0,0.0,0.0,0.019999999552965164,0.0,0.0,0.0,0.019999999552965164,0.0,0.0,0.0,0.019999999552965164,0.16879121959209442,0.020350713282823563,9.662399291992188,0.03999999910593033,0.0,0.0,0.0,0.03999999910593033,0.0,0.0,0.0,0.03999999910593033
1779682685052470480,857336,1779682685036441215,imu_link,0.007352319546043873,-0.00695056514814496,0.5541009306907654,0.83238285779953,0.0024999999441206455,0.0,0.0,0.0,0.0024999999441206455,0.0,0.0,0.0,0.0024999999441206455,0.0,0.0,0.0,0.019999999552965164,0.0,0.0,0.0,0.019999999552965164,0.0,0.0,0.0,0.019999999552965164,0.19033902883529663,0.04668693244457245,9.658807754516602,0.03999999910593033,0.0,0.0,0.0,0.03999999910593033,0.0,0.0,0.0,0.03999999910593033
1779682685074809797,857337,1779682685045441215,imu_link,0.0066016982309520245,-0.007853558287024498,0.5541099905967712,0.8323750495910645,0.0024999999441206455,0.0,0.0,0.0,0.0024999999441206455,0.0,0.0,0.0,0.0024999999441206455,0.0,0.0,0.0,0.019999999552965164,0.0,0.0,0.0,0.019999999552965164,0.0,0.0,0.0,0.019999999552965164,0.2017114907503128,0.004189853090792894,9.62947940826416,0.03999999910593033,0.0,0.0,0.0,0.03999999910593033,0.0,0.0,0.0,0.03999999910593033
1779682685100143433,857338,1779682685090441215,imu_link,0.0032022432424128056,-0.00573989562690258,0.5541378855705261,0.8323938846588135,0.0024999999441206455,0.0,0.0,0.0,0.0024999999441206455,0.0,0.0,0.0,0.0024999999441206455,0.0,0.0,0.0,0.019999999552965164,0.0,0.0,0.0,0.019999999552965164,0.0,0.0,0.0,0.019999999552965164,0.16400282084941864,0.0071826050989329815,9.643844604492188,0.03999999910593033,0.0,0.0,0.0,0.03999999910593033,0.0,0.0,0.0,0.03999999910593033
1779682685106195583,857339,1779682685092441215,imu_link,0.003776721190661192,-0.006121423095464706,0.5541337132453918,0.8323914408683777,0.0024999999441206455,0.0,0.0,0.0,0.0024999999441206455,0.0,0.0,0.0,0.0024999999441206455,0.0,0.0,0.0,0.019999999552965164,0.0,0.0,0.0,0.019999999552965164,0.0,0.0,0.0,0.019999999552965164,0.17836801707744598,0.011971008032560349,9.627683639526367,0.03999999910593033,0.0,0.0,0.0,0.03999999910593033,0.0,0.0,0.0,0.03999999910593033
1779682685111585720,857340,1779682685097441215,imu_link,0.004150542430579662,-0.006453825626522303,0.5541309118270874,0.8323890566825867,0.0024999999441206455,0.0,0.0,0.0,0.0024999999441206455,0.0,0.0,0.0,0.0024999999441206455,0.0,0.0,0.0,0.019999999552965164,0.0,0.0,0.0,0.019999999552965164,0.0,0.0,0.0,0.019999999552965164,0.1867477297782898,0.0077811554074287415,9.654618263244629,0.03999999910593033,0.0,0.0,0.0,0.03999999910593033,0.0,0.0,0.0,0.03999999910593033
1779682685117606493,857341,1779682685102441215,imu_link,0.004150542430579662,-0.006453825626522303,0.5541309118270874,0.8323890566825867,0.0024999999441206455,0.0,0.0,0.0,0.0024999999441206455,0.0,0.0,0.0,0.0024999999441206455,0.0,0.0,0.0,0.019999999552965164,0.0,0.0,0.0,0.019999999552965164,0.0,0.0,0.0,0.019999999552965164,0.1867477297782898,0.0077811554074287415,9.654618263244629,0.03999999910593033,0.0,0.0,0.0,0.03999999910593033,0.0,0.0,0.0,0.03999999910593033
1779682685123199264,857342,1779682685107441215,imu_link,0.004681977443397045,-0.006975772324949503,0.5541266202926636,0.8323848843574524,0.0024999999441206455,0.0,0.0,0.0,0.0024999999441206455,0.0,0.0,0.0,0.0024999999441206455,0.0,0.0,0.0,0.019999999552965164,0.0,0.0,0.0,0.019999999552965164,0.0,0.0,0.0,0.019999999552965164,0.17238251864910126,0.002992752008140087,9.582792282104492,0.03999999910593033,0.0,0.0,0.0,0.03999999910593033,0.0,0.0,0.0,0.03999999910593033
1779682685128804066,857343,1779682685112441215,imu_link,0.005422048736363649,-0.007001829799264669,0.5541202425956726,0.8323843479156494,0.0024999999441206455,0.0,0.0,0.0,0.0024999999441206455,0.0,0.0,0.0,0.0024999999441206455,0.0,0.0,0.0,0.019999999552965164,0.0,0.0,0.0,0.019999999552965164,0.0,0.0,0.0,0.019999999552965164,0.18614917993545532,0.03411737456917763,9.646238327026367,0.03999999910593033,0.0,0.0,0.0,0.03999999910593033,0.0,0.0,0.0,0.03999999910593033
1779682685134734015,857344,1779682685117441215,imu_link,0.005422048736363649,-0.007001829799264669,0.5541202425956726,0.8323843479156494,0.0024999999441206455,0.0,0.0,0.0,0.0024999999441206455,0.0,0.0,0.0,0.0024999999441206455,0.0,0.0,0.0,0.019999999552965164,0.0,0.0,0.0,0.019999999552965164,0.0,0.0,0.0,0.019999999552965164,0.18614917993545532,0.03411737456917763,9.646238327026367,0.03999999910593033,0.0,0.0,0.0,0.03999999910593033,0.0,0.0,0.0,0.03999999910593033
1779682685156973590,857345,1779682685122158710,imu_link,0.0060932086780667305,-0.007065918296575546,0.5541138648986816,0.8323833346366882,0.0024999999441206455,0.0,0.0,0.0,0.0024999999441206455,0.0,0.0,0.0,0.0024999999441206455,0.0,0.0,0.0,0.019999999552965164,0.0,0.0,0.0,0.019999999552965164,0.0,0.0,0.0,0.019999999552965164,0.18315643072128296,0.013168109580874443,9.630077362060547,0.03999999910593033,0.0,0.0,0.0,0.03999999910593033,0.0,0.0,0.0,0.03999999910593033
1779682685179231567,857346,1779682685168158710,imu_link,0.0020460395608097315,-0.00595488166436553,0.5541452169418335,0.8323910236358643,0.0024999999441206455,0.0,0.0,0.0,0.0024999999441206455,0.0,0.0,0.0,0.0024999999441206455,0.0,0.0,0.0,0.019999999552965164,0.0,0.0,0.0,0.019999999552965164,0.0,0.0,0.0,0.019999999552965164,0.16160860657691956,0.0065840547904372215,9.713874816894531,0.03999999910593033,0.0,0.0,0.0,0.03999999910593033,0.0,0.0,0.0,0.03999999910593033
1779682685184843153,857347,1779682685170158710,imu_link,0.0027359239757061005,-0.005997101776301861,0.5541408061981201,0.8323916792869568,0.0024999999441206455,0.0,0.0,0.0,0.0024999999441206455,0.0,0.0,0.0,0.0024999999441206455,0.0,0.0,0.0,0.019999999552965164,0.0,0.0,0.0,0.019999999552965164,0.0,0.0,0.0,0.019999999552965164,0.16879121959209442,0.03711012750864029,9.63306999206543,0.03999999910593033,0.0,0.0,0.0,0.03999999910593033,0.0,0.0,0.0,0.03999999910593033
1779682685190387330,857348,1779682685175158710,imu_link,0.0027359239757061005,-0.005997101776301861,0.5541408061981201,0.8323916792869568,0.0024999999441206455,0.0,0.0,0.0,0.0024999999441206455,0.0,0.0,0.0,0.0024999999441206455,0.0,0.0,0.0,0.019999999552965164,0.0,0.0,0.0,0.019999999552965164,0.0,0.0,0.0,0.019999999552965164,0.16879121959209442,0.03711012750864029,9.63306999206543,0.03999999910593033,0.0,0.0,0.0,0.03999999910593033,0.0,0.0,0.0,0.03999999910593033
1779682685196338717,857349,1779682685180158710,imu_link,0.003472145413979888,-0.005879998207092285,0.5541359782218933,0.8323929309844971,0.0024999999441206455,0.0,0.0,0.0,0.0024999999441206455,0.0,0.0,0.0,0.0024999999441206455,0.0,0.0,0.0,0.019999999552965164,0.0,0.0,0.0,0.019999999552965164,0.0,0.0,0.0,0.019999999552965164,0.15442600846290588,0.04249707981944084,9.656414031982422,0.03999999910593033,0.0,0.0,0.0,0.03999999910593033,0.0,0.0,0.0,0.03999999910593033
1779682685201702968,857350,1779682685185158710,imu_link,0.004191682208329439,-0.006055536679923534,0.5541308522224426,0.8323917984962463,0.0024999999441206455,0.0,0.0,0.0,0.0024999999441206455,0.0,0.0,0.0,0.0024999999441206455,0.0,0.0,0.0,0.019999999552965164,0.0,0.0,0.0,0.019999999552965164,0.0,0.0,0.0,0.019999999552965164,0.1759738177061081,0.033518824726343155,9.66658878326416,0.03999999910593033,0.0,0.0,0.0,0.03999999910593033,0.0,0.0,0.0,0.03999999910593033
1779682685207257844,857351,1779682685190158710,imu_link,0.004191682208329439,-0.006055536679923534,0.5541308522224426,0.8323917984962463,0.0024999999441206455,0.0,0.0,0.0,0.0024999999441206455,0.0,0.0,0.0,0.0024999999441206455,0.0,0.0,0.0,0.019999999552965164,0.0,0.0,0.0,0.019999999552965164,0.0,0.0,0.0,0.019999999552965164,0.1759738177061081,0.033518824726343155,9.66658878326416,0.03999999910593033,0.0,0.0,0.0,0.03999999910593033,0.0,0.0,0.0,0.03999999910593033
1779682685213610571,857352,1779682685195158710,imu_link,0.004902302287518978,-0.006288136355578899,0.5541254878044128,0.8323897123336792,0.0024999999441206455,0.0,0.0,0.0,0.0024999999441206455,0.0,0.0,0.0,0.0024999999441206455,0.0,0.0,0.0,0.019999999552965164,0.0,0.0,0.0,0.019999999552965164,0.0,0.0,0.0,0.019999999552965164,0.1777694672346115,0.030526071786880493,9.660603523254395,0.03999999910593033,0.0,0.0,0.0,0.03999999910593033,0.0,0.0,0.0,0.03999999910593033
1779682685236818645,857353,1779682685205158710,imu_link,0.005616956856101751,-0.007204218301922083,0.5541200637817383,0.8323814272880554,0.0024999999441206455,0.0,0.0,0.0,0.0024999999441206455,0.0,0.0,0.0,0.0024999999441206455,0.0,0.0,0.0,0.019999999552965164,0.0,0.0,0.0,0.019999999552965164,0.0,0.0,0.0,0.019999999552965164,0.1843535304069519,0.012569558806717396,9.640851974487305,0.03999999910593033,0.0,0.0,0.0,0.03999999910593033,0.0,0.0,0.0,0.03999999910593033
1779682685242793184,857354,1779682685212158710,imu_link,0.005449169315397739,-0.0064834114164114,0.5541209578514099,0.8323879241943359,0.0024999999441206455,0.0,0.0,0.0,0.0024999999441206455,0.0,0.0,0.0,0.0024999999441206455,0.0,0.0,0.0,0.019999999552965164,0.0,0.0,0.0,0.019999999552965164,0.0,0.0,0.0,0.019999999552965164,0.1562216579914093,0.020350713282823563,9.626486778259277,0.03999999910593033,0.0,0.0,0.0,0.03999999910593033,0.0,0.0,0.0,0.03999999910593033
1779682685264950141,857355,1779682685251158710,imu_link,0.007432225160300732,-0.0093119191005826,0.554103672504425,0.8323572874069214,0.0024999999441206455,0.0,0.0,0.0,0.0024999999441206455,0.0,0.0,0.0,0.0024999999441206455,0.0,0.0,0.0,0.019999999552965164,0.0,0.0,0.0,0.019999999552965164,0.0,0.0,0.0,0.019999999552965164,0.18136078119277954,0.018555063754320145,9.576807022094727,0.03999999910593033,0.0,0.0,0.0,0.03999999910593033,0.0,0.0,0.0,0.03999999910593033
