%time,field.header.seq,field.header.stamp,field.header.frame_id,field.orientation.x,field.orientation.y,field.orientation.z,field.orientation.w,field.orientation_covariance0,field.orientation_covariance1,field.orientation_covariance2,field.orientation_covariance3,field.orientation_covariance4,field.orientation_covariance5,field.orientation_covariance6,field.orientation_covariance7,field.orientation_covariance8,field.angular_velocity.x,field.angular_velocity.y,field.angular_velocity.z,field.angular_velocity_covariance0,field.angular_velocity_covariance1,field.angular_velocity_covariance2,field.angular_velocity_covariance3,field.angular_velocity_covariance4,field.angular_velocity_covariance5,field.angular_velocity_covariance6,field.angular_velocity_covariance7,field.angular_velocity_covariance8,field.linear_acceleration.x,field.linear_acceleration.y,field.linear_acceleration.z,field.linear_acceleration_covariance0,field.linear_acceleration_covariance1,field.linear_acceleration_covariance2,field.linear_acceleration_covariance3,field.linear_acceleration_covariance4,field.linear_acceleration_covariance5,field.linear_acceleration_covariance6,field.linear_acceleration_covariance7,field.linear_acceleration_covariance8
1779683673513395013,956235,1779683673328300762,imu_link,-0.00111947872210294,0.007818826474249363,-0.6195146441459656,-0.7849398255348206,0.0024999999441206455,0.0,0.0,0.0,0.0024999999441206455,0.0,0.0,0.0,0.0024999999441206455,0.0,0.0,0.0,0.019999999552965164,0.0,0.0,0.0,0.019999999552965164,0.0,0.0,0.0,0.019999999552965164,0.15143325924873352,-0.0586579404771328,9.595361709594727,0.03999999910593033,0.0,0.0,0.0,0.03999999910593033,0.0,0.0,0.0,0.03999999910593033
1779683673513462826,956236,1779683673333300762,imu_link,-0.00111947872210294,0.007818826474249363,-0.6195146441459656,-0.7849398255348206,0.0024999999441206455,0.0,0.0,0.0,0.0024999999441206455,0.0,0.0,0.0,0.0024999999441206455,0.0,0.0,0.0,0.019999999552965164,0.0,0.0,0.0,0.019999999552965164,0.0,0.0,0.0,0.019999999552965164,0.15143325924873352,-0.0586579404771328,9.595361709594727,0.03999999910593033,0.0,0.0,0.0,0.03999999910593033,0.0,0.0,0.0,0.03999999910593033
1779683673513494445,956237,1779683673338300762,imu_link,-0.0017974348738789558,0.00812368094921112,-0.6195086240768433,-0.784940242767334,0.0024999999441206455,0.0,0.0,0.0,0.0024999999441206455,0.0,0.0,0.0,0.0024999999441206455,0.0,0.0,0.0,0.019999999552965164,0.0,0.0,0.0,0.019999999552965164,0.0,0.0,0.0,0.019999999552965164,0.17836801707744598,-0.052073884755373,9.633668899536133,0.03999999910593033,0.0,0.0,0.0,0.03999999910593033,0.0,0.0,0.0,0.03999999910593033
1779683673513515139,956238,1779683673347300762,imu_link,-0.002836190164089203,0.008660721592605114,-0.6194984912872314,-0.7849394679069519,0.0024999999441206455,0.0,0.0,0.0,0.0024999999441206455,0.0,0.0,0.0,0.0024999999441206455,0.0,0.0,0.0,0.019999999552965164,0.0,0.0,0.0,0.019999999552965164,0.0,0.0,0.0,0.019999999552965164,0.15263035893440247,-0.06584054231643677,9.619902610778809,0.03999999910593033,0.0,0.0,0.0,0.03999999910593033,0.0,0.0,0.0,0.03999999910593033
1779683673513533030,956239,1779683673403300762,imu_link,-0.0001185466826427728,0.012998026795685291,-0.6194999814033508,-0.7848835587501526,0.0024999999441206455,0.0,0.0,0.0,0.0024999999441206455,0.0,0.0,0.0,0.0024999999441206455,0.0,0.0,0.0,0.019999999552965164,0.0,0.0,0.0,0.019999999552965164,0.0,0.0,0.0,0.019999999552965164,0.166995570063591,-0.06643909960985184,9.634267807006836,0.03999999910593033,0.0,0.0,0.0,0.03999999910593033,0.0,0.0,0.0,0.03999999910593033
1779683673513550403,956240,1779683673405300762,imu_link,-0.0005683727213181555,0.012480598874390125,-0.6194993257522583,-0.7848923206329346,0.0024999999441206455,0.0,0.0,0.0,0.0024999999441206455,0.0,0.0,0.0,0.0024999999441206455,0.0,0.0,0.0,0.019999999552965164,0.0,0.0,0.0,0.019999999552965164,0.0,0.0,0.0,0.019999999552965164,0.1759738177061081,-0.035913024097681046,9.643844604492188,0.03999999910593033,0.0,0.0,0.0,0.03999999910593033,0.0,0.0,0.0,0.03999999910593033
1779683673513572942,956241,1779683673410300762,imu_link,-0.0005683727213181555,0.012480598874390125,-0.6194993257522583,-0.7848923206329346,0.0024999999441206455,0.0,0.0,0.0,0.0024999999441206455,0.0,0.0,0.0,0.0024999999441206455,0.0,0.0,0.0,0.019999999552965164,0.0,0.0,0.0,0.019999999552965164,0.0,0.0,0.0,0.019999999552965164,0.1759738177061081,-0.035913024097681046,9.643844604492188,0.03999999910593033,0.0,0.0,0.0,0.03999999910593033,0.0,0.0,0.0,0.03999999910593033
1779683673513587166,956242,1779683673415300762,imu_link,-0.0009664859971962869,0.01185183972120285,-0.619499683380127,-0.7849013209342957,0.0024999999441206455,0.0,0.0,0.0,0.0024999999441206455,0.0,0.0,0.0,0.0024999999441206455,0.0,0.0,0.0,0.019999999552965164,0.0,0.0,0.0,0.019999999552965164,0.0,0.0,0.0,0.019999999552965164,0.16639702022075653,-0.05686229094862938,9.647435188293457,0.03999999910593033,0.0,0.0,0.0,0.03999999910593033,0.0,0.0,0.0,0.03999999910593033
1779683673513614040,956243,1779683673420300762,imu_link,-0.0012535997666418552,0.011172201484441757,-0.6195011734962463,-0.784909725189209,0.0024999999441206455,0.0,0.0,0.0,0.0024999999441206455,0.0,0.0,0.0,0.0024999999441206455,0.0,0.0,0.0,0.019999999552965164,0.0,0.0,0.0,0.019999999552965164,0.0,0.0,0.0,0.019999999552965164,0.14425064623355865,-0.041299980133771896,9.674968719482422,0.03999999910593033,0.0,0.0,0.0,0.03999999910593033,0.0,0.0,0.0,0.03999999910593033
1779683673513629717,956244,1779683673425300762,imu_link,-0.0012535997666418552,0.011172201484441757,-0.6195011734962463,-0.784909725189209,0.0024999999441206455,0.0,0.0,0.0,0.0024999999441206455,0.0,0.0,0.0,0.0024999999441206455,0.0,0.0,0.0,0.019999999552965164,0.0,0.0,0.0,0.019999999552965164,0.0,0.0,0.0,0.019999999552965164,0.14425064623355865,-0.041299980133771896,9.674968719482422,0.03999999910593033,0.0,0.0,0.0,0.03999999910593033,0.0,0.0,0.0,0.03999999910593033
1779683673513638136,956245,1779683673430300762,imu_link,-0.0014726329827681184,0.010460956022143364,-0.6195031404495239,-0.7849176526069641,0.0024999999441206455,0.0,0.0,0.0,0.0024999999441206455,0.0,0.0,0.0,0.0024999999441206455,0.0,0.0,0.0,0.019999999552965164,0.0,0.0,0.0,0.019999999552965164,0.0,0.0,0.0,0.019999999552965164,0.14425064623355865,-0.05686229094862938,9.633668899536133,0.03999999910593033,0.0,0.0,0.0,0.03999999910593033,0.0,0.0,0.0,0.03999999910593033
1779683673513653595,956246,1779683673439300762,imu_link,-0.0020938320085406303,0.009470543824136257,-0.6195023655891418,-0.7849294543266296,0.0024999999441206455,0.0,0.0,0.0,0.0024999999441206455,0.0,0.0,0.0,0.0024999999441206455,0.0,0.0,0.0,0.019999999552965164,0.0,0.0,0.0,0.019999999552965164,0.0,0.0,0.0,0.019999999552965164,0.15981295704841614,-0.05746084079146385,9.640253067016602,0.03999999910593033,0.0,0.0,0.0,0.03999999910593033,0.0,0.0,0.0,0.03999999910593033
1779683673513666989,956247,1779683673444300762,imu_link,-0.0020938320085406303,0.009470543824136257,-0.6195023655891418,-0.7849294543266296,0.0024999999441206455,0.0,0.0,0.0,0.0024999999441206455,0.0,0.0,0.0,0.0024999999441206455,0.0,0.0,0.0,0.019999999552965164,0.0,0.0,0.0,0.019999999552965164,0.0,0.0,0.0,0.019999999552965164,0.15981295704841614,-0.05746084079146385,9.640253067016602,0.03999999910593033,0.0,0.0,0.0,0.03999999910593033,0.0,0.0,0.0,0.03999999910593033
1779683673519675204,956248,1779683673498300762,imu_link,-0.002429407089948654,0.0040626549161970615,-0.6195131540298462,-0.7849665880203247,0.0024999999441206455,0.0,0.0,0.0,0.0024999999441206455,0.0,0.0,0.0,0.0024999999441206455,0.0,0.0,0.0,0.019999999552965164,0.0,0.0,0.0,0.019999999552965164,0.0,0.0,0.0,0.019999999552965164,0.15083470940589905,-0.06584054231643677,9.628281593322754,0.03999999910593033,0.0,0.0,0.0,0.03999999910593033,0.0,0.0,0.0,0.03999999910593033
1779683673525903055,956249,1779683673500300762,imu_link,-0.0024398460518568754,0.004748139064759016,-0.6195124983787537,-0.7849631309509277,0.0024999999441206455,0.0,0.0,0.0,0.0024999999441206455,0.0,0.0,0.0,0.0024999999441206455,0.0,0.0,0.0,0.019999999552965164,0.0,0.0,0.0,0.019999999552965164,0.0,0.0,0.0,0.019999999552965164,0.15741875767707825,-0.0628477931022644,9.654019355773926,0.03999999910593033,0.0,0.0,0.0,0.03999999910593033,0.0,0.0,0.0,0.03999999910593033
1779683673531434892,956250,1779683673505300762,imu_link,-0.0024398460518568754,0.004748139064759016,-0.6195124983787537,-0.7849631309509277,0.0024999999441206455,0.0,0.0,0.0,0.0024999999441206455,0.0,0.0,0.0,0.0024999999441206455,0.0,0.0,0.0,0.019999999552965164,0.0,0.0,0.0,0.019999999552965164,0.0,0.0,0.0,0.019999999552965164,0.15741875767707825,-0.0628477931022644,9.654019355773926,0.03999999910593033,0.0,0.0,0.0,0.03999999910593033,0.0,0.0,0.0,0.03999999910593033
1779683673536943664,956251,1779683673510300762,imu_link,-0.002487923949956894,0.005492031574249268,-0.6195113062858582,-0.784959077835083,0.0024999999441206455,0.0,0.0,0.0,0.0024999999441206455,0.0,0.0,0.0,0.0024999999441206455,0.0,0.0,0.0,0.019999999552965164,0.0,0.0,0.0,0.019999999552965164,0.0,0.0,0.0,0.019999999552965164,0.16340425610542297,-0.0628477931022644,9.63187313079834,0.03999999910593033,0.0,0.0,0.0,0.03999999910593033,0.0,0.0,0.0,0.03999999910593033
1779683673542923746,956252,1779683673515300762,imu_link,-0.002384365536272526,0.006222568452358246,-0.6195106506347656,-0.7849544882774353,0.0024999999441206455,0.0,0.0,0.0,0.0024999999441206455,0.0,0.0,0.0,0.0024999999441206455,0.0,0.0,0.0,0.019999999552965164,0.0,0.0,0.0,0.019999999552965164,0.0,0.0,0.0,0.019999999552965164,0.13168108463287354,-0.047884032130241394,9.619902610778809,0.03999999910593033,0.0,0.0,0.0,0.03999999910593033,0.0,0.0,0.0,0.03999999910593033
1779683673548950399,956253,1779683673520300762,imu_link,-0.002384365536272526,0.006222568452358246,-0.6195106506347656,-0.7849544882774353,0.0024999999441206455,0.0,0.0,0.0,0.0024999999441206455,0.0,0.0,0.0,0.0024999999441206455,0.0,0.0,0.0,0.019999999552965164,0.0,0.0,0.0,0.019999999552965164,0.0,0.0,0.0,0.019999999552965164,0.13168108463287354,-0.047884032130241394,9.619902610778809,0.03999999910593033,0.0,0.0,0.0,0.03999999910593033,0.0,0.0,0.0,0.03999999910593033
1779683673555008700,956254,1779683673525300762,imu_link,-0.002492972882464528,0.006958507467061281,-0.6195083260536194,-0.784949779510498,0.0024999999441206455,0.0,0.0,0.0,0.0024999999441206455,0.0,0.0,0.0,0.0024999999441206455,0.0,0.0,0.0,0.019999999552965164,0.0,0.0,0.0,0.019999999552965164,0.0,0.0,0.0,0.019999999552965164,0.16101005673408508,-0.060453593730926514,9.588178634643555,0.03999999910593033,0.0,0.0,0.0,0.03999999910593033,0.0,0.0,0.0,0.03999999910593033
1779683673586206944,956255,1779683673534300762,imu_link,-0.0034225911367684603,0.007668033707886934,-0.6194997429847717,-0.7849465012550354,0.0024999999441206455,0.0,0.0,0.0,0.0024999999441206455,0.0,0.0,0.0,0.0024999999441206455,0.0,0.0,0.0,0.019999999552965164,0.0,0.0,0.0,0.019999999552965164,0.0,0.0,0.0,0.019999999552965164,0.1646013706922531,-0.03770867735147476,9.624691009521484,0.03999999910593033,0.0,0.0,0.0,0.03999999910593033,0.0,0.0,0.0,0.03999999910593033
1779683673605552820,956256,1779683673578300762,imu_link,-0.0021312858443707228,0.011366385966539383,-0.6194978952407837,-0.7849076986312866,0.0024999999441206455,0.0,0.0,0.0,0.0024999999441206455,0.0,0.0,0.0,0.0024999999441206455,0.0,0.0,0.0,0.019999999552965164,0.0,0.0,0.0,0.019999999552965164,0.0,0.0,0.0,0.019999999552965164,0.1711854189634323,-0.06224924325942993,9.636063575744629,0.03999999910593033,0.0,0.0,0.0,0.03999999910593033,0.0,0.0,0.0,0.03999999910593033
1779683673611085715,956257,1779683673580300762,imu_link,-0.0021204291842877865,0.010681383311748505,-0.6195014715194702,-0.7849143743515015,0.0024999999441206455,0.0,0.0,0.0,0.0024999999441206455,0.0,0.0,0.0,0.0024999999441206455,0.0,0.0,0.0,0.019999999552965164,0.0,0.0,0.0,0.019999999552965164,0.0,0.0,0.0,0.019999999552965164,0.152031809091568,-0.06883329898118973,9.63187313079834,0.03999999910593033,0.0,0.0,0.0,0.03999999910593033,0.0,0.0,0.0,0.03999999910593033
1779683673617474161,956258,1779683673585300762,imu_link,-0.0021204291842877865,0.010681383311748505,-0.6195014715194702,-0.7849143743515015,0.0024999999441206455,0.0,0.0,0.0,0.0024999999441206455,0.0,0.0,0.0,0.0024999999441206455,0.0,0.0,0.0,0.019999999552965164,0.0,0.0,0.0,0.019999999552965164,0.0,0.0,0.0,0.019999999552965164,0.152031809091568,-0.06883329898118973,9.63187313079834,0.03999999910593033,0.0,0.0,0.0,0.03999999910593033,0.0,0.0,0.0,0.03999999910593033
1779683673622696275,956259,1779683673590300762,imu_link,-0.002357622142881155,0.009975956752896309,-0.6195025444030762,-0.784922182559967,0.0024999999441206455,0.0,0.0,0.0,0.0024999999441206455,0.0,0.0,0.0,0.0024999999441206455,0.0,0.0,0.0,0.019999999552965164,0.0,0.0,0.0,0.019999999552965164,0.0,0.0,0.0,0.019999999552965164,0.16879121959209442,-0.06703764945268631,9.668384552001953,0.03999999910593033,0.0,0.0,0.0,0.03999999910593033,0.0,0.0,0.0,0.03999999910593033
1779683673629080484,956260,1779683673595300762,imu_link,-0.0027380832470953465,0.009343947283923626,-0.6195015907287598,-0.7849295735359192,0.0024999999441206455,0.0,0.0,0.0,0.0024999999441206455,0.0,0.0,0.0,0.0024999999441206455,0.0,0.0,0.0,0.019999999552965164,0.0,0.0,0.0,0.019999999552965164,0.0,0.0,0.0,0.019999999552965164,0.17477671802043915,-0.07182604819536209,9.640851974487305,0.03999999910593033,0.0,0.0,0.0,0.03999999910593033,0.0,0.0,0.0,0.03999999910593033
1779683673635197259,956261,1779683673600300762,imu_link,-0.0027380832470953465,0.009343947283923626,-0.6195015907287598,-0.7849295735359192,0.0024999999441206455,0.0,0.0,0.0,0.0024999999441206455,0.0,0.0,0.0,0.0024999999441206455,0.0,0.0,0.0,0.019999999552965164,0.0,0.0,0.0,0.019999999552965164,0.0,0.0,0.0,0.019999999552965164,0.17477671802043915,-0.07182604819536209,9.640851974487305,0.03999999910593033,0.0,0.0,0.0,0.03999999910593033,0.0,0.0,0.0,0.03999999910593033
1779683673640999034,956262,1779683673605300762,imu_link,-0.0029363050125539303,0.008626449853181839,-0.6195021867752075,-0.7849364876747131,0.0024999999441206455,0.0,0.0,0.0,0.0024999999441206455,0.0,0.0,0.0,0.0024999999441206455,0.0,0.0,0.0,0.019999999552965164,0.0,0.0,0.0,0.019999999552965164,0.0,0.0,0.0,0.019999999552965164,0.15502455830574036,-0.04369417950510979,9.66539192199707,0.03999999910593033,0.0,0.0,0.0,0.03999999910593033,0.0,0.0,0.0,0.03999999910593033
1779683673663200191,956263,1779683673614300762,imu_link,-0.0017835189355537295,0.008424635045230389,-0.6195123195648193,-0.7849342226982117,0.0024999999441206455,0.0,0.0,0.0,0.0024999999441206455,0.0,0.0,0.0,0.0024999999441206455,0.0,0.0,0.0,0.019999999552965164,0.0,0.0,0.0,0.019999999552965164,0.0,0.0,0.0,0.019999999552965164,0.15981295704841614,-0.06404489278793335,9.650428771972656,0.03999999910593033,0.0,0.0,0.0,0.03999999910593033,0.0,0.0,0.0,0.03999999910593033
1779683673690088316,956264,1779683673669300762,imu_link,-0.006797743495553732,0.008247964084148407,-0.6194664835929871,-0.7849448919296265,0.0024999999441206455,0.0,0.0,0.0,0.0024999999441206455,0.0,0.0,0.0,0.0024999999441206455,0.0,0.0,0.0,0.019999999552965164,0.0,0.0,0.0,0.019999999552965164,0.0,0.0,0.0,0.019999999552965164,0.17298106849193573,-0.04010287672281265,9.618704795837402,0.03999999910593033,0.0,0.0,0.0,0.03999999910593033,0.0,0.0,0.0,0.03999999910593033
1779683673695757375,956265,1779683673671300762,imu_link,-0.006113772746175528,0.008279808796942234,-0.6194736957550049,-0.7849445343017578,0.0024999999441206455,0.0,0.0,0.0,0.0024999999441206455,0.0,0.0,0.0,0.0024999999441206455,0.0,0.0,0.0,0.019999999552965164,0.0,0.0,0.0,0.019999999552965164,0.0,0.0,0.0,0.019999999552965164,0.15801730751991272,-0.06344634294509888,9.665990829467773,0.03999999910593033,0.0,0.0,0.0,0.03999999910593033,0.0,0.0,0.0,0.03999999910593033
1779683673700954154,956266,1779683673676300762,imu_link,-0.006113772746175528,0.008279808796942234,-0.6194736957550049,-0.7849445343017578,0.0024999999441206455,0.0,0.0,0.0,0.0024999999441206455,0.0,0.0,0.0,0.0024999999441206455,0.0,0.0,0.0,0.019999999552965164,0.0,0.0,0.0,0.019999999552965164,0.0,0.0,0.0,0.019999999552965164,0.15801730751991272,-0.06344634294509888,9.665990829467773,0.03999999910593033,0.0,0.0,0.0,0.03999999910593033,0.0,0.0,0.0,0.03999999910593033
1779683673706616863,956267,1779683673681300762,imu_link,-0.005393305793404579,0.008087950758635998,-0.6194809675216675,-0.7849460244178772,0.0024999999441206455,0.0,0.0,0.0,0.0024999999441206455,0.0,0.0,0.0,0.0024999999441206455,0.0,0.0,0.0,0.019999999552965164,0.0,0.0,0.0,0.019999999552965164,0.0,0.0,0.0,0.019999999552965164,0.15442600846290588,-0.03950432687997818,9.656414031982422,0.03999999910593033,0.0,0.0,0.0,0.03999999910593033,0.0,0.0,0.0,0.03999999910593033
1779683673712183586,956268,1779683673686300762,imu_link,-0.004799210466444492,0.007650706451386213,-0.619486927986145,-0.7849496006965637,0.0024999999441206455,0.0,0.0,0.0,0.0024999999441206455,0.0,0.0,0.0,0.0024999999441206455,0.0,0.0,0.0,0.019999999552965164,0.0,0.0,0.0,0.019999999552965164,0.0,0.0,0.0,0.019999999552965164,0.14365209639072418,-0.02693476900458336,9.652223587036133,0.03999999910593033,0.0,0.0,0.0,0.03999999910593033,0.0,0.0,0.0,0.03999999910593033
1779683673717660491,956269,1779683673691300762,imu_link,-0.004799210466444492,0.007650706451386213,-0.619486927986145,-0.7849496006965637,0.0024999999441206455,0.0,0.0,0.0,0.0024999999441206455,0.0,0.0,0.0,0.0024999999441206455,0.0,0.0,0.0,0.019999999552965164,0.0,0.0,0.0,0.019999999552965164,0.0,0.0,0.0,0.019999999552965164,0.14365209639072418,-0.02693476900458336,9.652223587036133,0.03999999910593033,0.0,0.0,0.0,0.03999999910593033,0.0,0.0,0.0,0.03999999910593033
1779683673724014541,956270,1779683673696300762,imu_link,-0.004057335201650858,0.007679799571633339,-0.6194933652877808,-0.7849483489990234,0.0024999999441206455,0.0,0.0,0.0,0.0024999999441206455,0.0,0.0,0.0,0.0024999999441206455,0.0,0.0,0.0,0.019999999552965164,0.0,0.0,0.0,0.019999999552965164,0.0,0.0,0.0,0.019999999552965164,0.14724339544773102,-0.05446808785200119,9.645041465759277,0.03999999910593033,0.0,0.0,0.0,0.03999999910593033,0.0,0.0,0.0,0.03999999910593033
1779683673747059587,956271,1779683673705300762,imu_link,-0.00508210901170969,0.007114493288099766,-0.619485080242157,-0.7849542498588562,0.0024999999441206455,0.0,0.0,0.0,0.0024999999441206455,0.0,0.0,0.0,0.0024999999441206455,0.0,0.0,0.0,0.019999999552965164,0.0,0.0,0.0,0.019999999552965164,0.0,0.0,0.0,0.019999999552965164,0.16639702022075653,-0.020350713282823563,9.642048835754395,0.03999999910593033,0.0,0.0,0.0,0.03999999910593033,0.0,0.0,0.0,0.03999999910593033
1779683673752834449,956272,1779683673710300762,imu_link,-0.00508210901170969,0.007114493288099766,-0.619485080242157,-0.7849542498588562,0.0024999999441206455,0.0,0.0,0.0,0.0024999999441206455,0.0,0.0,0.0,0.0024999999441206455,0.0,0.0,0.0,0.019999999552965164,0.0,0.0,0.0,0.019999999552965164,0.0,0.0,0.0,0.019999999552965164,0.16639702022075653,-0.020350713282823563,9.642048835754395,0.03999999910593033,0.0,0.0,0.0,0.03999999910593033,0.0,0.0,0.0,0.03999999910593033
1779683673774273058,956273,1779683673756300762,imu_link,-0.0004648735630325973,0.0072037759236991405,-0.6195187568664551,-0.7849432229995728,0.0024999999441206455,0.0,0.0,0.0,0.0024999999441206455,0.0,0.0,0.0,0.0024999999441206455,0.0,0.0,0.0,0.019999999552965164,0.0,0.0,0.0,0.019999999552965164,0.0,0.0,0.0,0.019999999552965164,0.1304839849472046,-0.0586579404771328,9.66539192199707,0.03999999910593033,0.0,0.0,0.0,0.03999999910593033,0.0,0.0,0.0,0.03999999910593033
1779683673779608986,956274,1779683673758300762,imu_link,-0.0011247348738834262,0.007393769454210997,-0.6195138692855835,-0.7849445343017578,0.0024999999441206455,0.0,0.0,0.0,0.0024999999441206455,0.0,0.0,0.0,0.0024999999441206455,0.0,0.0,0.0,0.019999999552965164,0.0,0.0,0.0,0.019999999552965164,0.0,0.0,0.0,0.019999999552965164,0.1604115068912506,-0.046088382601737976,9.636661529541016,0.03999999910593033,0.0,0.0,0.0,0.03999999910593033,0.0,0.0,0.0,0.03999999910593033
1779683673785450775,956275,1779683673763300762,imu_link,-0.0011247348738834262,0.007393769454210997,-0.6195138692855835,-0.7849445343017578,0.0024999999441206455,0.0,0.0,0.0,0.0024999999441206455,0.0,0.0,0.0,0.0024999999441206455,0.0,0.0,0.0,0.019999999552965164,0.0,0.0,0.0,0.019999999552965164,0.0,0.0,0.0,0.019999999552965164,0.1604115068912506,-0.046088382601737976,9.636661529541016,0.03999999910593033,0.0,0.0,0.0,0.03999999910593033,0.0,0.0,0.0,0.03999999910593033
1779683673791495462,956276,1779683673768300762,imu_link,-0.0018110754899680614,0.007682370021939278,-0.6195082068443298,-0.7849450707435608,0.0024999999441206455,0.0,0.0,0.0,0.0024999999441206455,0.0,0.0,0.0,0.0024999999441206455,0.0,0.0,0.0,0.019999999552965164,0.0,0.0,0.0,0.019999999552965164,0.0,0.0,0.0,0.019999999552965164,0.15442600846290588,-0.05626373738050461,9.710283279418945,0.03999999910593033,0.0,0.0,0.0,0.03999999910593033,0.0,0.0,0.0,0.03999999910593033
1779683673796785515,956277,1779683673773300762,imu_link,-0.0025485672522336245,0.0077139330096542835,-0.619502604007721,-0.7849470376968384,0.0024999999441206455,0.0,0.0,0.0,0.0024999999441206455,0.0,0.0,0.0,0.0024999999441206455,0.0,0.0,0.0,0.019999999552965164,0.0,0.0,0.0,0.019999999552965164,0.0,0.0,0.0,0.019999999552965164,0.15143325924873352,-0.04848258197307587,9.632472038269043,0.03999999910593033,0.0,0.0,0.0,0.03999999910593033,0.0,0.0,0.0,0.03999999910593033
1779683673802852231,956278,1779683673778300762,imu_link,-0.0025485672522336245,0.0077139330096542835,-0.619502604007721,-0.7849470376968384,0.0024999999441206455,0.0,0.0,0.0,0.0024999999441206455,0.0,0.0,0.0,0.0024999999441206455,0.0,0.0,0.0,0.019999999552965164,0.0,0.0,0.0,0.019999999552965164,0.0,0.0,0.0,0.019999999552965164,0.15143325924873352,-0.04848258197307587,9.632472038269043,0.03999999910593033,0.0,0.0,0.0,0.03999999910593033,0.0,0.0,0.0,0.03999999910593033
1779683673808531584,956279,1779683673783300762,imu_link,-0.002941999351605773,0.008343237452208996,-0.6194976568222046,-0.7849430441856384,0.0024999999441206455,0.0,0.0,0.0,0.0024999999441206455,0.0,0.0,0.0,0.0024999999441206455,0.0,0.0,0.0,0.019999999552965164,0.0,0.0,0.0,0.019999999552965164,0.0,0.0,0.0,0.019999999552965164,0.17717091739177704,-0.05686229094862938,9.639056205749512,0.03999999910593033,0.0,0.0,0.0,0.03999999910593033,0.0,0.0,0.0,0.03999999910593033
1779683673831324047,956280,1779683673792300762,imu_link,-0.0032554795034229755,0.007219384424388409,-0.6194978952407837,-0.7849528789520264,0.0024999999441206455,0.0,0.0,0.0,0.0024999999441206455,0.0,0.0,0.0,0.0024999999441206455,0.0,0.0,0.0,0.019999999552965164,0.0,0.0,0.0,0.019999999552965164,0.0,0.0,0.0,0.019999999552965164,0.15442600846290588,-0.046088382601737976,9.608530044555664,0.03999999910593033,0.0,0.0,0.0,0.03999999910593033,0.0,0.0,0.0,0.03999999910593033
1779683673852729794,956281,1779683673832300762,imu_link,-0.0016850283136591315,0.004068605601787567,-0.619512140750885,-0.78496915102005,0.0024999999441206455,0.0,0.0,0.0,0.0024999999441206455,0.0,0.0,0.0,0.0024999999441206455,0.0,0.0,0.0,0.019999999552965164,0.0,0.0,0.0,0.019999999552965164,0.0,0.0,0.0,0.019999999552965164,0.13168108463287354,-0.033518824726343155,9.62947940826416,0.03999999910593033,0.0,0.0,0.0,0.03999999910593033,0.0,0.0,0.0,0.03999999910593033
1779683673858870493,956282,1779683673834300762,imu_link,-0.001907685655169189,0.004716367926448584,-0.619510293006897,-0.7849665284156799,0.0024999999441206455,0.0,0.0,0.0,0.0024999999441206455,0.0,0.0,0.0,0.0024999999441206455,0.0,0.0,0.0,0.019999999552965164,0.0,0.0,0.0,0.019999999552965164,0.0,0.0,0.0,0.019999999552965164,0.14903905987739563,-0.04668693244457245,9.64683723449707,0.03999999910593033,0.0,0.0,0.0,0.03999999910593033,0.0,0.0,0.0,0.03999999910593033
1779683673864378637,956283,1779683673839300762,imu_link,-0.001907685655169189,0.004716367926448584,-0.619510293006897,-0.7849665284156799,0.0024999999441206455,0.0,0.0,0.0,0.0024999999441206455,0.0,0.0,0.0,0.0024999999441206455,0.0,0.0,0.0,0.019999999552965164,0.0,0.0,0.0,0.019999999552965164,0.0,0.0,0.0,0.019999999552965164,0.14903905987739563,-0.04668693244457245,9.64683723449707,0.03999999910593033,0.0,0.0,0.0,0.03999999910593033,0.0,0.0,0.0,0.03999999910593033
1779683673869607816,956284,1779683673844300762,imu_link,-0.0022462208289653063,0.005380619782954454,-0.6195074915885925,-0.7849634885787964,0.0024999999441206455,0.0,0.0,0.0,0.0024999999441206455,0.0,0.0,0.0,0.0024999999441206455,0.0,0.0,0.0,0.019999999552965164,0.0,0.0,0.0,0.019999999552965164,0.0,0.0,0.0,0.019999999552965164,0.17836801707744598,-0.04429272934794426,9.686341285705566,0.03999999910593033,0.0,0.0,0.0,0.03999999910593033,0.0,0.0,0.0,0.03999999910593033
1779683673875050425,956285,1779683673849300762,imu_link,-0.0024020643904805183,0.006103850901126862,-0.6195053458213806,-0.7849595546722412,0.0024999999441206455,0.0,0.0,0.0,0.0024999999441206455,0.0,0.0,0.0,0.0024999999441206455,0.0,0.0,0.0,0.019999999552965164,0.0,0.0,0.0,0.019999999552965164,0.0,0.0,0.0,0.019999999552965164,0.15502455830574036,-0.053270988166332245,9.610325813293457,0.03999999910593033,0.0,0.0,0.0,0.03999999910593033,0.0,0.0,0.0,0.03999999910593033
1779683673881046144,956286,1779683673854300762,imu_link,-0.0024020643904805183,0.006103850901126862,-0.6195053458213806,-0.7849595546722412,0.0024999999441206455,0.0,0.0,0.0,0.0024999999441206455,0.0,0.0,0.0,0.0024999999441206455,0.0,0.0,0.0,0.019999999552965164,0.0,0.0,0.0,0.019999999552965164,0.0,0.0,0.0,0.019999999552965164,0.15502455830574036,-0.053270988166332245,9.610325813293457,0.03999999910593033,0.0,0.0,0.0,0.03999999910593033,0.0,0.0,0.0,0.03999999910593033
1779683673886979018,956287,1779683673859300762,imu_link,-0.0022602821700274944,0.006832513026893139,-0.6195046901702881,-0.7849545478820801,0.0024999999441206455,0.0,0.0,0.0,0.0024999999441206455,0.0,0.0,0.0,0.0024999999441206455,0.0,0.0,0.0,0.019999999552965164,0.0,0.0,0.0,0.019999999552965164,0.0,0.0,0.0,0.019999999552965164,0.14604629576206207,-0.0652419924736023,9.67077922821045,0.03999999910593033,0.0,0.0,0.0,0.03999999910593033,0.0,0.0,0.0,0.03999999910593033
1779683673909416229,956288,1779683673868300762,imu_link,-0.0020301651675254107,0.007971045561134815,-0.6195030212402344,-0.7849457263946533,0.0024999999441206455,0.0,0.0,0.0,0.0024999999441206455,0.0,0.0,0.0,0.0024999999441206455,0.0,0.0,0.0,0.019999999552965164,0.0,0.0,0.0,0.019999999552965164,0.0,0.0,0.0,0.019999999552965164,0.1346738487482071,-0.05267243832349777,9.618106842041016,0.03999999910593033,0.0,0.0,0.0,0.03999999910593033,0.0,0.0,0.0,0.03999999910593033
1779683673930651231,956289,1779683673916300762,imu_link,-0.004056993871927261,0.004149940796196461,-0.6194947361946106,-0.7849738597869873,0.0024999999441206455,0.0,0.0,0.0,0.0024999999441206455,0.0,0.0,0.0,0.0024999999441206455,0.0,0.0,0.0,0.019999999552965164,0.0,0.0,0.0,0.019999999552965164,0.0,0.0,0.0,0.019999999552965164,0.1364694982767105,-0.04489128291606903,9.657011985778809,0.03999999910593033,0.0,0.0,0.0,0.03999999910593033,0.0,0.0,0.0,0.03999999910593033
1779683673936507651,956290,1779683673918300762,imu_link,-0.003880367847159505,0.00481309462338686,-0.6194959878921509,-0.7849699258804321,0.0024999999441206455,0.0,0.0,0.0,0.0024999999441206455,0.0,0.0,0.0,0.0024999999441206455,0.0,0.0,0.0,0.019999999552965164,0.0,0.0,0.0,0.019999999552965164,0.0,0.0,0.0,0.019999999552965164,0.1628057062625885,-0.05686229094862938,9.650428771972656,0.03999999910593033,0.0,0.0,0.0,0.03999999910593033,0.0,0.0,0.0,0.03999999910593033
1779683673941979895,956291,1779683673923300762,imu_link,-0.003880367847159505,0.00481309462338686,-0.6194959878921509,-0.7849699258804321,0.0024999999441206455,0.0,0.0,0.0,0.0024999999441206455,0.0,0.0,0.0,0.0024999999441206455,0.0,0.0,0.0,0.019999999552965164,0.0,0.0,0.0,0.019999999552965164,0.0,0.0,0.0,0.019999999552965164,0.1628057062625885,-0.05686229094862938,9.650428771972656,0.03999999910593033,0.0,0.0,0.0,0.03999999910593033,0.0,0.0,0.0,0.03999999910593033
1779683673948616233,956292,1779683673928300762,imu_link,-0.003694628132507205,0.005534631200134754,-0.6194970011711121,-0.7849652767181396,0.0024999999441206455,0.0,0.0,0.0,0.0024999999441206455,0.0,0.0,0.0,0.0024999999441206455,0.0,0.0,0.0,0.019999999552965164,0.0,0.0,0.0,0.019999999552965164,0.0,0.0,0.0,0.019999999552965164,0.16819266974925995,-0.06344634294509888,9.619303703308105,0.03999999910593033,0.0,0.0,0.0,0.03999999910593033,0.0,0.0,0.0,0.03999999910593033
1779683673954143863,956293,1779683673933300762,imu_link,-0.003625077661126852,0.006271490827202797,-0.6194969415664673,-0.784960150718689,0.0024999999441206455,0.0,0.0,0.0,0.0024999999441206455,0.0,0.0,0.0,0.0024999999441206455,0.0,0.0,0.0,0.019999999552965164,0.0,0.0,0.0,0.019999999552965164,0.0,0.0,0.0,0.019999999552965164,0.16101005673408508,-0.04189852997660637,9.631275177001953,0.03999999910593033,0.0,0.0,0.0,0.03999999910593033,0.0,0.0,0.0,0.03999999910593033
1779683673959516031,956294,1779683673938300762,imu_link,-0.003625077661126852,0.006271490827202797,-0.6194969415664673,-0.784960150718689,0.0024999999441206455,0.0,0.0,0.0,0.0024999999441206455,0.0,0.0,0.0,0.0024999999441206455,0.0,0.0,0.0,0.019999999552965164,0.0,0.0,0.0,0.019999999552965164,0.0,0.0,0.0,0.019999999552965164,0.16101005673408508,-0.04189852997660637,9.631275177001953,0.03999999910593033,0.0,0.0,0.0,0.03999999910593033,0.0,0.0,0.0,0.03999999910593033
1779683673965617773,956295,1779683673943300762,imu_link,-0.0031045321375131607,0.0068006389774382114,-0.619499921798706,-0.7849555611610413,0.0024999999441206455,0.0,0.0,0.0,0.0024999999441206455,0.0,0.0,0.0,0.0024999999441206455,0.0,0.0,0.0,0.019999999552965164,0.0,0.0,0.0,0.019999999552965164,0.0,0.0,0.0,0.019999999552965164,0.14425064623355865,-0.0652419924736023,9.66299819946289,0.03999999910593033,0.0,0.0,0.0,0.03999999910593033,0.0,0.0,0.0,0.03999999910593033
1779683673988674004,956296,1779683673952300762,imu_link,-0.00234186346642673,0.00767657021060586,-0.6195034980773926,-0.784947395324707,0.0024999999441206455,0.0,0.0,0.0,0.0024999999441206455,0.0,0.0,0.0,0.0024999999441206455,0.0,0.0,0.0,0.019999999552965164,0.0,0.0,0.0,0.019999999552965164,0.0,0.0,0.0,0.019999999552965164,0.14724339544773102,-0.07062894850969315,9.66658878326416,0.03999999910593033,0.0,0.0,0.0,0.03999999910593033,0.0,0.0,0.0,0.03999999910593033
1779683673994043079,956297,1779683673957300762,imu_link,-0.00234186346642673,0.00767657021060586,-0.6195034980773926,-0.784947395324707,0.0024999999441206455,0.0,0.0,0.0,0.0024999999441206455,0.0,0.0,0.0,0.0024999999441206455,0.0,0.0,0.0,0.019999999552965164,0.0,0.0,0.0,0.019999999552965164,0.0,0.0,0.0,0.019999999552965164,0.14724339544773102,-0.07062894850969315,9.66658878326416,0.03999999910593033,0.0,0.0,0.0,0.03999999910593033,0.0,0.0,0.0,0.03999999910593033
1779683674015889669,956298,1779683673994300762,imu_link,-0.0027490530628710985,0.011378049850463867,-0.6194853186607361,-0.7849154472351074,0.0024999999441206455,0.0,0.0,0.0,0.0024999999441206455,0.0,0.0,0.0,0.0024999999441206455,0.0,0.0,0.0,0.019999999552965164,0.0,0.0,0.0,0.019999999552965164,0.0,0.0,0.0,0.019999999552965164,0.15083470940589905,-0.060453593730926514,9.631275177001953,0.03999999910593033,0.0,0.0,0.0,0.03999999910593033,0.0,0.0,0.0,0.03999999910593033
1779683674024185444,956299,1779683673996300762,imu_link,-0.002709785709157586,0.010695192962884903,-0.6194888949394226,-0.7849223017692566,0.0024999999441206455,0.0,0.0,0.0,0.0024999999441206455,0.0,0.0,0.0,0.0024999999441206455,0.0,0.0,0.0,0.019999999552965164,0.0,0.0,0.0,0.019999999552965164,0.0,0.0,0.0,0.019999999552965164,0.16101005673408508,-0.06344634294509888,9.646238327026367,0.03999999910593033,0.0,0.0,0.0,0.03999999910593033,0.0,0.0,0.0,0.03999999910593033
1779683674030474520,956300,1779683674001300762,imu_link,-0.002709785709157586,0.010695192962884903,-0.6194888949394226,-0.7849223017692566,0.0024999999441206455,0.0,0.0,0.0,0.0024999999441206455,0.0,0.0,0.0,0.0024999999441206455,0.0,0.0,0.0,0.019999999552965164,0.0,0.0,0.0,0.019999999552965164,0.0,0.0,0.0,0.019999999552965164,0.16101005673408508,-0.06344634294509888,9.646238327026367,0.03999999910593033,0.0,0.0,0.0,0.03999999910593033,0.0,0.0,0.0,0.03999999910593033
1779683674035839180,956301,1779683674006300762,imu_link,-0.002891768468543887,0.009972634725272655,-0.6194902062416077,-0.7849302291870117,0.0024999999441206455,0.0,0.0,0.0,0.0024999999441206455,0.0,0.0,0.0,0.0024999999441206455,0.0,0.0,0.0,0.019999999552965164,0.0,0.0,0.0,0.019999999552965164,0.0,0.0,0.0,0.019999999552965164,0.15801730751991272,-0.03950432687997818,9.64923095703125,0.03999999910593033,0.0,0.0,0.0,0.03999999910593033,0.0,0.0,0.0,0.03999999910593033
1779683674041595685,956302,1779683674011300762,imu_link,-0.002939110854640603,0.009236524812877178,-0.6194924712181091,-0.78493732213974,0.0024999999441206455,0.0,0.0,0.0,0.0024999999441206455,0.0,0.0,0.0,0.0024999999441206455,0.0,0.0,0.0,0.019999999552965164,0.0,0.0,0.0,0.019999999552965164,0.0,0.0,0.0,0.019999999552965164,0.15921440720558167,-0.05147533491253853,9.667187690734863,0.03999999910593033,0.0,0.0,0.0,0.03999999910593033,0.0,0.0,0.0,0.03999999910593033
1779683674047260563,956303,1779683674016300762,imu_link,-0.002939110854640603,0.009236524812877178,-0.6194924712181091,-0.78493732213974,0.0024999999441206455,0.0,0.0,0.0,0.0024999999441206455,0.0,0.0,0.0,0.0024999999441206455,0.0,0.0,0.0,0.019999999552965164,0.0,0.0,0.0,0.019999999552965164,0.0,0.0,0.0,0.019999999552965164,0.15921440720558167,-0.05147533491253853,9.667187690734863,0.03999999910593033,0.0,0.0,0.0,0.03999999910593033,0.0,0.0,0.0,0.03999999910593033
1779683674053405315,956304,1779683674021300762,imu_link,-0.002587339375168085,0.008583731018006802,-0.6194977164268494,-0.7849417924880981,0.0024999999441206455,0.0,0.0,0.0,0.0024999999441206455,0.0,0.0,0.0,0.0024999999441206455,0.0,0.0,0.0,0.019999999552965164,0.0,0.0,0.0,0.019999999552965164,0.0,0.0,0.0,0.019999999552965164,0.1604115068912506,-0.06344634294509888,9.679159164428711,0.03999999910593033,0.0,0.0,0.0,0.03999999910593033,0.0,0.0,0.0,0.03999999910593033
1779683674077382355,956305,1779683674030300762,imu_link,-0.002587746363133192,0.0074178255163133144,-0.6195011138916016,-0.7849509716033936,0.0024999999441206455,0.0,0.0,0.0,0.0024999999441206455,0.0,0.0,0.0,0.0024999999441206455,0.0,0.0,0.0,0.019999999552965164,0.0,0.0,0.0,0.019999999552965164,0.0,0.0,0.0,0.019999999552965164,0.1454477459192276,-0.05147533491253853,9.602544784545898,0.03999999910593033,0.0,0.0,0.0,0.03999999910593033,0.0,0.0,0.0,0.03999999910593033
1779683674098648458,956306,1779683674079300762,imu_link,-0.00382014038041234,0.01166710164397955,-0.6194750070571899,-0.7849149107933044,0.0024999999441206455,0.0,0.0,0.0,0.0024999999441206455,0.0,0.0,0.0,0.0024999999441206455,0.0,0.0,0.0,0.019999999552965164,0.0,0.0,0.0,0.019999999552965164,0.0,0.0,0.0,0.019999999552965164,0.16579847037792206,-0.0586579404771328,9.606135368347168,0.03999999910593033,0.0,0.0,0.0,0.03999999910593033,0.0,0.0,0.0,0.03999999910593033
1779683674104055570,956307,1779683674081300762,imu_link,-0.0035081873647868633,0.011060447432100773,-0.6194810271263123,-0.7849203944206238,0.0024999999441206455,0.0,0.0,0.0,0.0024999999441206455,0.0,0.0,0.0,0.0024999999441206455,0.0,0.0,0.0,0.019999999552965164,0.0,0.0,0.0,0.019999999552965164,0.0,0.0,0.0,0.019999999552965164,0.15442600846290588,-0.06823474913835526,9.626486778259277,0.03999999910593033,0.0,0.0,0.0,0.03999999910593033,0.0,0.0,0.0,0.03999999910593033
1779683674109500255,956308,1779683674086300762,imu_link,-0.0035081873647868633,0.011060447432100773,-0.6194810271263123,-0.7849203944206238,0.0024999999441206455,0.0,0.0,0.0,0.0024999999441206455,0.0,0.0,0.0,0.0024999999441206455,0.0,0.0,0.0,0.019999999552965164,0.0,0.0,0.0,0.019999999552965164,0.0,0.0,0.0,0.019999999552965164,0.15442600846290588,-0.06823474913835526,9.626486778259277,0.03999999910593033,0.0,0.0,0.0,0.03999999910593033,0.0,0.0,0.0,0.03999999910593033
1779683674115058087,956309,1779683674091300762,imu_link,-0.0035128367599099874,0.010317880660295486,-0.6194838285446167,-0.7849282622337341,0.0024999999441206455,0.0,0.0,0.0,0.0024999999441206455,0.0,0.0,0.0,0.0024999999441206455,0.0,0.0,0.0,0.019999999552965164,0.0,0.0,0.0,0.019999999552965164,0.0,0.0,0.0,0.019999999552965164,0.16340425610542297,-0.04189852997660637,9.685742378234863,0.03999999910593033,0.0,0.0,0.0,0.03999999910593033,0.0,0.0,0.0,0.03999999910593033
1779683674120507956,956310,1779683674096300762,imu_link,-0.0034529967233538628,0.009584514424204826,-0.6194869875907898,-0.784935474395752,0.0024999999441206455,0.0,0.0,0.0,0.0024999999441206455,0.0,0.0,0.0,0.0024999999441206455,0.0,0.0,0.0,0.019999999552965164,0.0,0.0,0.0,0.019999999552965164,0.0,0.0,0.0,0.019999999552965164,0.15023615956306458,-0.038307227194309235,9.62947940826416,0.03999999910593033,0.0,0.0,0.0,0.03999999910593033,0.0,0.0,0.0,0.03999999910593033
1779683674126378419,956311,1779683674101300762,imu_link,-0.0034529967233538628,0.009584514424204826,-0.6194869875907898,-0.784935474395752,0.0024999999441206455,0.0,0.0,0.0,0.0024999999441206455,0.0,0.0,0.0,0.0024999999441206455,0.0,0.0,0.0,0.019999999552965164,0.0,0.0,0.0,0.019999999552965164,0.0,0.0,0.0,0.019999999552965164,0.15023615956306458,-0.038307227194309235,9.62947940826416,0.03999999910593033,0.0,0.0,0.0,0.03999999910593033,0.0,0.0,0.0,0.03999999910593033
1779683674132054826,956312,1779683674106300762,imu_link,-0.0034646193962544203,0.008842366747558117,-0.6194889545440674,-0.7849423885345459,0.0024999999441206455,0.0,0.0,0.0,0.0024999999441206455,0.0,0.0,0.0,0.0024999999441206455,0.0,0.0,0.0,0.019999999552965164,0.0,0.0,0.0,0.019999999552965164,0.0,0.0,0.0,0.019999999552965164,0.15682020783424377,-0.038307227194309235,9.627084732055664,0.03999999910593033,0.0,0.0,0.0,0.03999999910593033,0.0,0.0,0.0,0.03999999910593033
1779683674155510940,956313,1779683674115300762,imu_link,-0.0022980235517024994,0.008952034637331963,-0.6194989085197449,-0.7849377393722534,0.0024999999441206455,0.0,0.0,0.0,0.0024999999441206455,0.0,0.0,0.0,0.0024999999441206455,0.0,0.0,0.0,0.019999999552965164,0.0,0.0,0.0,0.019999999552965164,0.0,0.0,0.0,0.019999999552965164,0.15263035893440247,-0.08738835901021957,9.618704795837402,0.03999999910593033,0.0,0.0,0.0,0.03999999910593033,0.0,0.0,0.0,0.03999999910593033
1779683674161759865,956314,1779683674120300762,imu_link,-0.0022980235517024994,0.008952034637331963,-0.6194989085197449,-0.7849377393722534,0.0024999999441206455,0.0,0.0,0.0,0.0024999999441206455,0.0,0.0,0.0,0.0024999999441206455,0.0,0.0,0.0,0.019999999552965164,0.0,0.0,0.0,0.019999999552965164,0.0,0.0,0.0,0.019999999552965164,0.15263035893440247,-0.08738835901021957,9.618704795837402,0.03999999910593033,0.0,0.0,0.0,0.03999999910593033,0.0,0.0,0.0,0.03999999910593033
1779683674184130660,956315,1779683674162300762,imu_link,-0.00650344043970108,0.009343014098703861,-0.6194563508033752,-0.7849431037902832,0.0024999999441206455,0.0,0.0,0.0,0.0024999999441206455,0.0,0.0,0.0,0.0024999999441206455,0.0,0.0,0.0,0.019999999552965164,0.0,0.0,0.0,0.019999999552965164,0.0,0.0,0.0,0.019999999552965164,0.17537526786327362,-0.058059390634298325,9.59835433959961,0.03999999910593033,0.0,0.0,0.0,0.03999999910593033,0.0,0.0,0.0,0.03999999910593033
1779683674188833187,956316,1779683674164300762,imu_link,-0.0058197760954499245,0.009329408407211304,-0.6194639801979065,-0.784942626953125,0.0024999999441206455,0.0,0.0,0.0,0.0024999999441206455,0.0,0.0,0.0,0.0024999999441206455,0.0,0.0,0.0,0.019999999552965164,0.0,0.0,0.0,0.019999999552965164,0.0,0.0,0.0,0.019999999552965164,0.1711854189634323,-0.07182604819536209,9.652223587036133,0.03999999910593033,0.0,0.0,0.0,0.03999999910593033,0.0,0.0,0.0,0.03999999910593033
1779683674194822306,956317,1779683674169300762,imu_link,-0.0058197760954499245,0.009329408407211304,-0.6194639801979065,-0.784942626953125,0.0024999999441206455,0.0,0.0,0.0,0.0024999999441206455,0.0,0.0,0.0,0.0024999999441206455,0.0,0.0,0.0,0.019999999552965164,0.0,0.0,0.0,0.019999999552965164,0.0,0.0,0.0,0.019999999552965164,0.1711854189634323,-0.07182604819536209,9.652223587036133,0.03999999910593033,0.0,0.0,0.0,0.03999999910593033,0.0,0.0,0.0,0.03999999910593033
1779683674202271830,956318,1779683674174300762,imu_link,-0.005236778408288956,0.008869269862771034,-0.6194707155227661,-0.7849467396736145,0.0024999999441206455,0.0,0.0,0.0,0.0024999999441206455,0.0,0.0,0.0,0.0024999999441206455,0.0,0.0,0.0,0.019999999552965164,0.0,0.0,0.0,0.019999999552965164,0.0,0.0,0.0,0.019999999552965164,0.11911153048276901,-0.0454898327589035,9.672574996948242,0.03999999910593033,0.0,0.0,0.0,0.03999999910593033,0.0,0.0,0.0,0.03999999910593033
1779683674205719409,956319,1779683674179300762,imu_link,-0.004623089917004108,0.008463608101010323,-0.619477391242981,-0.7849498391151428,0.0024999999441206455,0.0,0.0,0.0,0.0024999999441206455,0.0,0.0,0.0,0.0024999999441206455,0.0,0.0,0.0,0.019999999552965164,0.0,0.0,0.0,0.019999999552965164,0.0,0.0,0.0,0.019999999552965164,0.15442600846290588,-0.040701426565647125,9.644442558288574,0.03999999910593033,0.0,0.0,0.0,0.03999999910593033,0.0,0.0,0.0,0.03999999910593033
1779683674211862830,956320,1779683674184300762,imu_link,-0.004623089917004108,0.008463608101010323,-0.619477391242981,-0.7849498391151428,0.0024999999441206455,0.0,0.0,0.0,0.0024999999441206455,0.0,0.0,0.0,0.0024999999441206455,0.0,0.0,0.0,0.019999999552965164,0.0,0.0,0.0,0.019999999552965164,0.0,0.0,0.0,0.019999999552965164,0.15442600846290588,-0.040701426565647125,9.644442558288574,0.03999999910593033,0.0,0.0,0.0,0.03999999910593033,0.0,0.0,0.0,0.03999999910593033
1779683674217995807,956321,1779683674189300762,imu_link,-0.004218198359012604,0.009085911326110363,-0.6194800138473511,-0.7849429845809937,0.0024999999441206455,0.0,0.0,0.0,0.0024999999441206455,0.0,0.0,0.0,0.0024999999441206455,0.0,0.0,0.0,0.019999999552965164,0.0,0.0,0.0,0.019999999552965164,0.0,0.0,0.0,0.019999999552965164,0.19033902883529663,-0.050876785069704056,9.658209800720215,0.03999999910593033,0.0,0.0,0.0,0.03999999910593033,0.0,0.0,0.0,0.03999999910593033
1779683674241299106,956322,1779683674198300762,imu_link,-0.003058855189010501,0.008932190015912056,-0.6194912791252136,-0.7849412560462952,0.0024999999441206455,0.0,0.0,0.0,0.0024999999441206455,0.0,0.0,0.0,0.0024999999441206455,0.0,0.0,0.0,0.019999999552965164,0.0,0.0,0.0,0.019999999552965164,0.0,0.0,0.0,0.019999999552965164,0.16160860657691956,-0.0694318488240242,9.605537414550781,0.03999999910593033,0.0,0.0,0.0,0.03999999910593033,0.0,0.0,0.0,0.03999999910593033
1779683674262940610,956323,1779683674244300762,imu_link,0.0001971190795302391,0.006400529760867357,-0.6195229887962341,-0.7849469184875488,0.0024999999441206455,0.0,0.0,0.0,0.0024999999441206455,0.0,0.0,0.0,0.0024999999441206455,0.0,0.0,0.0,0.019999999552965164,0.0,0.0,0.0,0.019999999552965164,0.0,0.0,0.0,0.019999999552965164,0.15083470940589905,-0.06584054231643677,9.66658878326416,0.03999999910593033,0.0,0.0,0.0,0.03999999910593033,0.0,0.0,0.0,0.03999999910593033
1779683674268464236,956324,1779683674246300762,imu_link,-0.0004252328653819859,0.006687371991574764,-0.6195185780525208,-0.7849478721618652,0.0024999999441206455,0.0,0.0,0.0,0.0024999999441206455,0.0,0.0,0.0,0.0024999999441206455,0.0,0.0,0.0,0.019999999552965164,0.0,0.0,0.0,0.019999999552965164,0.0,0.0,0.0,0.019999999552965164,0.15562310814857483,-0.04848258197307587,9.650428771972656,0.03999999910593033,0.0,0.0,0.0,0.03999999910593033,0.0,0.0,0.0,0.03999999910593033
1779683674274816089,956325,1779683674251300762,imu_link,-0.0004252328653819859,0.006687371991574764,-0.6195185780525208,-0.7849478721618652,0.0024999999441206455,0.0,0.0,0.0,0.0024999999441206455,0.0,0.0,0.0,0.0024999999441206455,0.0,0.0,0.0,0.019999999552965164,0.0,0.0,0.0,0.019999999552965164,0.0,0.0,0.0,0.019999999552965164,0.15562310814857483,-0.04848258197307587,9.650428771972656,0.03999999910593033,0.0,0.0,0.0,0.03999999910593033,0.0,0.0,0.0,0.03999999910593033
1779683674280253661,956326,1779683674256300762,imu_link,-0.0011590685462579131,0.006788552738726139,-0.619513988494873,-0.7849499583244324,0.0024999999441206455,0.0,0.0,0.0,0.0024999999441206455,0.0,0.0,0.0,0.0024999999441206455,0.0,0.0,0.0,0.019999999552965164,0.0,0.0,0.0,0.019999999552965164,0.0,0.0,0.0,0.019999999552965164,0.1304839849472046,-0.050876785069704056,9.677363395690918,0.03999999910593033,0.0,0.0,0.0,0.03999999910593033,0.0,0.0,0.0,0.03999999910593033
1779683674285497523,956327,1779683674261300762,imu_link,-0.001791963237337768,0.007164521608501673,-0.6195087432861328,-0.7849496006965637,0.0024999999441206455,0.0,0.0,0.0,0.0024999999441206455,0.0,0.0,0.0,0.0024999999441206455,0.0,0.0,0.0,0.019999999552965164,0.0,0.0,0.0,0.019999999552965164,0.0,0.0,0.0,0.019999999552965164,0.16101005673408508,-0.046088382601737976,9.603741645812988,0.03999999910593033,0.0,0.0,0.0,0.03999999910593033,0.0,0.0,0.0,0.03999999910593033
1779683674290996718,956328,1779683674266300762,imu_link,-0.001791963237337768,0.007164521608501673,-0.6195087432861328,-0.7849496006965637,0.0024999999441206455,0.0,0.0,0.0,0.0024999999441206455,0.0,0.0,0.0,0.0024999999441206455,0.0,0.0,0.0,0.019999999552965164,0.0,0.0,0.0,0.019999999552965164,0.0,0.0,0.0,0.019999999552965164,0.16101005673408508,-0.046088382601737976,9.603741645812988,0.03999999910593033,0.0,0.0,0.0,0.03999999910593033,0.0,0.0,0.0,0.03999999910593033
1779683674297273094,956329,1779683674271300762,imu_link,-0.0023212626110762358,0.007687535136938095,-0.6195033192634583,-0.784947395324707,0.0024999999441206455,0.0,0.0,0.0,0.0024999999441206455,0.0,0.0,0.0,0.0024999999441206455,0.0,0.0,0.0,0.019999999552965164,0.0,0.0,0.0,0.019999999552965164,0.0,0.0,0.0,0.019999999552965164,0.16819266974925995,-0.053270988166332245,9.582792282104492,0.03999999910593033,0.0,0.0,0.0,0.03999999910593033,0.0,0.0,0.0,0.03999999910593033
1779683674318815520,956330,1779683674280300762,imu_link,-0.003355083055794239,0.008232931606471539,-0.6194936633110046,-0.7849459052085876,0.0024999999441206455,0.0,0.0,0.0,0.0024999999441206455,0.0,0.0,0.0,0.0024999999441206455,0.0,0.0,0.0,0.019999999552965164,0.0,0.0,0.0,0.019999999552965164,0.0,0.0,0.0,0.019999999552965164,0.16101005673408508,-0.04908113554120064,9.63067626953125,0.03999999910593033,0.0,0.0,0.0,0.03999999910593033,0.0,0.0,0.0,0.03999999910593033
1779683674326372672,956331,1779683674285300762,imu_link,-0.003355083055794239,0.008232931606471539,-0.6194936633110046,-0.7849459052085876,0.0024999999441206455,0.0,0.0,0.0,0.0024999999441206455,0.0,0.0,0.0,0.0024999999441206455,0.0,0.0,0.0,0.019999999552965164,0.0,0.0,0.0,0.019999999552965164,0.0,0.0,0.0,0.019999999552965164,0.16101005673408508,-0.04908113554120064,9.63067626953125,0.03999999910593033,0.0,0.0,0.0,0.03999999910593033,0.0,0.0,0.0,0.03999999910593033
1779683674347218731,956332,1779683674329300762,imu_link,0.0010690649505704641,0.00816777627915144,-0.6195255517959595,-0.7849278450012207,0.0024999999441206455,0.0,0.0,0.0,0.0024999999441206455,0.0,0.0,0.0,0.0024999999441206455,0.0,0.0,0.0,0.019999999552965164,0.0,0.0,0.0,0.019999999552965164,0.0,0.0,0.0,0.019999999552965164,0.14664484560489655,-0.07062894850969315,9.673771858215332,0.03999999910593033,0.0,0.0,0.0,0.03999999910593033,0.0,0.0,0.0,0.03999999910593033
1779683674352704141,956333,1779683674331300762,imu_link,0.00040526449447497725,0.0083411680534482,-0.6195205450057983,-0.7849305868148804,0.0024999999441206455,0.0,0.0,0.0,0.0024999999441206455,0.0,0.0,0.0,0.0024999999441206455,0.0,0.0,0.0,0.019999999552965164,0.0,0.0,0.0,0.019999999552965164,0.0,0.0,0.0,0.019999999552965164,0.15502455830574036,-0.07960720360279083,9.602544784545898,0.03999999910593033,0.0,0.0,0.0,0.03999999910593033,0.0,0.0,0.0,0.03999999910593033
1779683674359185621,956334,1779683674336300762,imu_link,0.00040526449447497725,0.0083411680534482,-0.6195205450057983,-0.7849305868148804,0.0024999999441206455,0.0,0.0,0.0,0.0024999999441206455,0.0,0.0,0.0,0.0024999999441206455,0.0,0.0,0.0,0.019999999552965164,0.0,0.0,0.0,0.019999999552965164,0.0,0.0,0.0,0.019999999552965164,0.15502455830574036,-0.07960720360279083,9.602544784545898,0.03999999910593033,0.0,0.0,0.0,0.03999999910593033,0.0,0.0,0.0,0.03999999910593033
1779683674364113598,956335,1779683674341300762,imu_link,-0.0003366916789673269,0.008380039595067501,-0.6195154786109924,-0.7849341630935669,0.0024999999441206455,0.0,0.0,0.0,0.0024999999441206455,0.0,0.0,0.0,0.0024999999441206455,0.0,0.0,0.0,0.019999999552965164,0.0,0.0,0.0,0.019999999552965164,0.0,0.0,0.0,0.019999999552965164,0.1777694672346115,-0.04249707981944084,9.676165580749512,0.03999999910593033,0.0,0.0,0.0,0.03999999910593033,0.0,0.0,0.0,0.03999999910593033
1779683674369724442,956336,1779683674346300762,imu_link,-0.0010700899874791503,0.00842809583991766,-0.6195101141929626,-0.7849372625350952,0.0024999999441206455,0.0,0.0,0.0,0.0024999999441206455,0.0,0.0,0.0,0.0024999999441206455,0.0,0.0,0.0,0.019999999552965164,0.0,0.0,0.0,0.019999999552965164,0.0,0.0,0.0,0.019999999552965164,0.1604115068912506,-0.06224924325942993,9.640851974487305,0.03999999910593033,0.0,0.0,0.0,0.03999999910593033,0.0,0.0,0.0,0.03999999910593033
1779683674375909416,956337,1779683674351300762,imu_link,-0.0010700899874791503,0.00842809583991766,-0.6195101141929626,-0.7849372625350952,0.0024999999441206455,0.0,0.0,0.0,0.0024999999441206455,0.0,0.0,0.0,0.0024999999441206455,0.0,0.0,0.0,0.019999999552965164,0.0,0.0,0.0,0.019999999552965164,0.0,0.0,0.0,0.019999999552965164,0.1604115068912506,-0.06224924325942993,9.640851974487305,0.03999999910593033,0.0,0.0,0.0,0.03999999910593033,0.0,0.0,0.0,0.03999999910593033
1779683674381450588,956338,1779683674356300762,imu_link,-0.0018095173873007298,0.008356637321412563,-0.6195048689842224,-0.784940779209137,0.0024999999441206455,0.0,0.0,0.0,0.0024999999441206455,0.0,0.0,0.0,0.0024999999441206455,0.0,0.0,0.0,0.019999999552965164,0.0,0.0,0.0,0.019999999552965164,0.0,0.0,0.0,0.019999999552965164,0.16160860657691956,-0.05147533491253853,9.640851974487305,0.03999999910593033,0.0,0.0,0.0,0.03999999910593033,0.0,0.0,0.0,0.03999999910593033
1779683674405464572,956339,1779683674365300762,imu_link,-0.0029780457261949778,0.00838764663785696,-0.6194953322410583,-0.7849443554878235,0.0024999999441206455,0.0,0.0,0.0,0.0024999999441206455,0.0,0.0,0.0,0.0024999999441206455,0.0,0.0,0.0,0.019999999552965164,0.0,0.0,0.0,0.019999999552965164,0.0,0.0,0.0,0.019999999552965164,0.15322890877723694,-0.06584054231643677,9.622895240783691,0.03999999910593033,0.0,0.0,0.0,0.03999999910593033,0.0,0.0,0.0,0.03999999910593033
1779683674427067948,956340,1779683674408300762,imu_link,-0.006799222901463509,0.008267593570053577,-0.6194589734077454,-0.7849505543708801,0.0024999999441206455,0.0,0.0,0.0,0.0024999999441206455,0.0,0.0,0.0,0.0024999999441206455,0.0,0.0,0.0,0.019999999552965164,0.0,0.0,0.0,0.019999999552965164,0.0,0.0,0.0,0.019999999552965164,0.16819266974925995,-0.04728548228740692,9.633668899536133,0.03999999910593033,0.0,0.0,0.0,0.03999999910593033,0.0,0.0,0.0,0.03999999910593033
1779683674432933879,956341,1779683674410300762,imu_link,-0.0061339945532381535,0.008091014809906483,-0.6194659471511841,-0.7849524617195129,0.0024999999441206455,0.0,0.0,0.0,0.0024999999441206455,0.0,0.0,0.0,0.0024999999441206455,0.0,0.0,0.0,0.019999999552965164,0.0,0.0,0.0,0.019999999552965164,0.0,0.0,0.0,0.019999999552965164,0.14844051003456116,-0.03890577703714371,9.617507934570312,0.03999999910593033,0.0,0.0,0.0,0.03999999910593033,0.0,0.0,0.0,0.03999999910593033
1779683674438790390,956342,1779683674415300762,imu_link,-0.0061339945532381535,0.008091014809906483,-0.6194659471511841,-0.7849524617195129,0.0024999999441206455,0.0,0.0,0.0,0.0024999999441206455,0.0,0.0,0.0,0.0024999999441206455,0.0,0.0,0.0,0.019999999552965164,0.0,0.0,0.0,0.019999999552965164,0.0,0.0,0.0,0.019999999552965164,0.14844051003456116,-0.03890577703714371,9.617507934570312,0.03999999910593033,0.0,0.0,0.0,0.03999999910593033,0.0,0.0,0.0,0.03999999910593033
1779683674444372327,956343,1779683674420300762,imu_link,-0.0053985281847417355,0.008192473091185093,-0.6194731593132019,-0.7849510312080383,0.0024999999441206455,0.0,0.0,0.0,0.0024999999441206455,0.0,0.0,0.0,0.0024999999441206455,0.0,0.0,0.0,0.019999999552965164,0.0,0.0,0.0,0.019999999552965164,0.0,0.0,0.0,0.019999999552965164,0.16759411990642548,-0.05027823522686958,9.59835433959961,0.03999999910593033,0.0,0.0,0.0,0.03999999910593033,0.0,0.0,0.0,0.03999999910593033
1779683674449891734,956344,1779683674425300762,imu_link,-0.004691310692578554,0.008394673466682434,-0.6194797158241272,-0.7849482297897339,0.0024999999441206455,0.0,0.0,0.0,0.0024999999441206455,0.0,0.0,0.0,0.0024999999441206455,0.0,0.0,0.0,0.019999999552965164,0.0,0.0,0.0,0.019999999552965164,0.0,0.0,0.0,0.019999999552965164,0.1801636815071106,-0.03651157394051552,9.641449928283691,0.03999999910593033,0.0,0.0,0.0,0.03999999910593033,0.0,0.0,0.0,0.03999999910593033
1779683674455328040,956345,1779683674430300762,imu_link,-0.004691310692578554,0.008394673466682434,-0.6194797158241272,-0.7849482297897339,0.0024999999441206455,0.0,0.0,0.0,0.0024999999441206455,0.0,0.0,0.0,0.0024999999441206455,0.0,0.0,0.0,0.019999999552965164,0.0,0.0,0.0,0.019999999552965164,0.0,0.0,0.0,0.019999999552965164,0.1801636815071106,-0.03651157394051552,9.641449928283691,0.03999999910593033,0.0,0.0,0.0,0.03999999910593033,0.0,0.0,0.0,0.03999999910593033
1779683674461097368,956346,1779683674435300762,imu_link,-0.004006954841315746,0.008106151595711708,-0.6194865107536316,-0.784949779510498,0.0024999999441206455,0.0,0.0,0.0,0.0024999999441206455,0.0,0.0,0.0,0.0024999999441206455,0.0,0.0,0.0,0.019999999552965164,0.0,0.0,0.0,0.019999999552965164,0.0,0.0,0.0,0.019999999552965164,0.14903905987739563,-0.047884032130241394,9.628281593322754,0.03999999910593033,0.0,0.0,0.0,0.03999999910593033,0.0,0.0,0.0,0.03999999910593033
1779683674484195941,956347,1779683674444300762,imu_link,-0.0028359040152281523,0.008145960979163647,-0.6194964051246643,-0.7849467396736145,0.0024999999441206455,0.0,0.0,0.0,0.0024999999441206455,0.0,0.0,0.0,0.0024999999441206455,0.0,0.0,0.0,0.019999999552965164,0.0,0.0,0.0,0.019999999552965164,0.0,0.0,0.0,0.019999999552965164,0.16340425610542297,-0.046088382601737976,9.646238327026367,0.03999999910593033,0.0,0.0,0.0,0.03999999910593033,0.0,0.0,0.0,0.03999999910593033
1779683674506987492,956348,1779683674493300762,imu_link,-0.0009010821813717484,0.012116722762584686,-0.6194949150085449,-0.7849012017250061,0.0024999999441206455,0.0,0.0,0.0,0.0024999999441206455,0.0,0.0,0.0,0.0024999999441206455,0.0,0.0,0.0,0.019999999552965164,0.0,0.0,0.0,0.019999999552965164,0.0,0.0,0.0,0.019999999552965164,0.16160860657691956,-0.06404489278793335,9.623493194580078,0.03999999910593033,0.0,0.0,0.0,0.03999999910593033,0.0,0.0,0.0,0.03999999910593033
1779683674512529962,956349,1779683674495300762,imu_link,-0.0013520617503672838,0.011595480144023895,-0.6194937229156494,-0.7849093079566956,0.0024999999441206455,0.0,0.0,0.0,0.0024999999441206455,0.0,0.0,0.0,0.0024999999441206455,0.0,0.0,0.0,0.019999999552965164,0.0,0.0,0.0,0.019999999552965164,0.0,0.0,0.0,0.019999999552965164,0.17956513166427612,-0.05386953800916672,9.651625633239746,0.03999999910593033,0.0,0.0,0.0,0.03999999910593033,0.0,0.0,0.0,0.03999999910593033
1779683674521062754,956350,1779683674500300762,imu_link,-0.0013520617503672838,0.011595480144023895,-0.6194937229156494,-0.7849093079566956,0.0024999999441206455,0.0,0.0,0.0,0.0024999999441206455,0.0,0.0,0.0,0.0024999999441206455,0.0,0.0,0.0,0.019999999552965164,0.0,0.0,0.0,0.019999999552965164,0.0,0.0,0.0,0.019999999552965164,0.17956513166427612,-0.05386953800916672,9.651625633239746,0.03999999910593033,0.0,0.0,0.0,0.03999999910593033,0.0,0.0,0.0,0.03999999910593033
1779683674523861956,956351,1779683674505300762,imu_link,-0.0016242836136370897,0.01090435404330492,-0.6194950938224792,-0.7849176526069641,0.0024999999441206455,0.0,0.0,0.0,0.0024999999441206455,0.0,0.0,0.0,0.0024999999441206455,0.0,0.0,0.0,0.019999999552965164,0.0,0.0,0.0,0.019999999552965164,0.0,0.0,0.0,0.019999999552965164,0.15741875767707825,-0.0586579404771328,9.667786598205566,0.03999999910593033,0.0,0.0,0.0,0.03999999910593033,0.0,0.0,0.0,0.03999999910593033
1779683674529235691,956352,1779683674510300762,imu_link,-0.0018472789088264108,0.010203448124229908,-0.6194966435432434,-0.7849253416061401,0.0024999999441206455,0.0,0.0,0.0,0.0024999999441206455,0.0,0.0,0.0,0.0024999999441206455,0.0,0.0,0.0,0.019999999552965164,0.0,0.0,0.0,0.019999999552965164,0.0,0.0,0.0,0.019999999552965164,0.15502455830574036,-0.06165069341659546,9.66958236694336,0.03999999910593033,0.0,0.0,0.0,0.03999999910593033,0.0,0.0,0.0,0.03999999910593033
1779683674534889947,956353,1779683674515300762,imu_link,-0.0018472789088264108,0.010203448124229908,-0.6194966435432434,-0.7849253416061401,0.0024999999441206455,0.0,0.0,0.0,0.0024999999441206455,0.0,0.0,0.0,0.0024999999441206455,0.0,0.0,0.0,0.019999999552965164,0.0,0.0,0.0,0.019999999552965164,0.0,0.0,0.0,0.019999999552965164,0.15502455830574036,-0.06165069341659546,9.66958236694336,0.03999999910593033,0.0,0.0,0.0,0.03999999910593033,0.0,0.0,0.0,0.03999999910593033
1779683674540165507,956354,1779683674520300762,imu_link,-0.0016417292645201087,0.009489845484495163,-0.6195018291473389,-0.7849306464195251,0.0024999999441206455,0.0,0.0,0.0,0.0024999999441206455,0.0,0.0,0.0,0.0024999999441206455,0.0,0.0,0.0,0.019999999552965164,0.0,0.0,0.0,0.019999999552965164,0.0,0.0,0.0,0.019999999552965164,0.14425064623355865,-0.08080430328845978,9.660603523254395,0.03999999910593033,0.0,0.0,0.0,0.03999999910593033,0.0,0.0,0.0,0.03999999910593033
1779683674564827554,956355,1779683674529300762,imu_link,-0.0019706599414348602,0.008367976173758507,-0.6195037961006165,-0.7849411368370056,0.0024999999441206455,0.0,0.0,0.0,0.0024999999441206455,0.0,0.0,0.0,0.0024999999441206455,0.0,0.0,0.0,0.019999999552965164,0.0,0.0,0.0,0.019999999552965164,0.0,0.0,0.0,0.019999999552965164,0.13706804811954498,-0.05147533491253853,9.651625633239746,0.03999999910593033,0.0,0.0,0.0,0.03999999910593033,0.0,0.0,0.0,0.03999999910593033
1779683674570971185,956356,1779683674534300762,imu_link,-0.0019706599414348602,0.008367976173758507,-0.6195037961006165,-0.7849411368370056,0.0024999999441206455,0.0,0.0,0.0,0.0024999999441206455,0.0,0.0,0.0,0.0024999999441206455,0.0,0.0,0.0,0.019999999552965164,0.0,0.0,0.0,0.019999999552965164,0.0,0.0,0.0,0.019999999552965164,0.13706804811954498,-0.05147533491253853,9.651625633239746,0.03999999910593033,0.0,0.0,0.0,0.03999999910593033,0.0,0.0,0.0,0.03999999910593033
1779683674577536390,956357,1779683674539300762,imu_link,-0.002713631372898817,0.008391951210796833,-0.6194977164268494,-0.7849433422088623,0.0024999999441206455,0.0,0.0,0.0,0.0024999999441206455,0.0,0.0,0.0,0.0024999999441206455,0.0,0.0,0.0,0.019999999552965164,0.0,0.0,0.0,0.019999999552965164,0.0,0.0,0.0,0.019999999552965164,0.1604115068912506,-0.0586579404771328,9.664793968200684,0.03999999910593033,0.0,0.0,0.0,0.03999999910593033,0.0,0.0,0.0,0.03999999910593033
1779683674582101657,956358,1779683674544300762,imu_link,-0.002464315155521035,0.007696949411183596,-0.6195018291473389,-0.7849482297897339,0.0024999999441206455,0.0,0.0,0.0,0.0024999999441206455,0.0,0.0,0.0,0.0024999999441206455,0.0,0.0,0.0,0.019999999552965164,0.0,0.0,0.0,0.019999999552965164,0.0,0.0,0.0,0.019999999552965164,0.1346738487482071,-0.050876785069704056,9.658209800720215,0.03999999910593033,0.0,0.0,0.0,0.03999999910593033,0.0,0.0,0.0,0.03999999910593033
1779683674587862042,956359,1779683674549300762,imu_link,-0.002464315155521035,0.007696949411183596,-0.6195018291473389,-0.7849482297897339,0.0024999999441206455,0.0,0.0,0.0,0.0024999999441206455,0.0,0.0,0.0,0.0024999999441206455,0.0,0.0,0.0,0.019999999552965164,0.0,0.0,0.0,0.019999999552965164,0.0,0.0,0.0,0.019999999552965164,0.1346738487482071,-0.050876785069704056,9.658209800720215,0.03999999910593033,0.0,0.0,0.0,0.03999999910593033,0.0,0.0,0.0,0.03999999910593033
1779683674610347604,956360,1779683674591300762,imu_link,-0.0024685857351869345,0.011934605427086353,-0.6194841861724854,-0.7849090695381165,0.0024999999441206455,0.0,0.0,0.0,0.0024999999441206455,0.0,0.0,0.0,0.0024999999441206455,0.0,0.0,0.0,0.019999999552965164,0.0,0.0,0.0,0.019999999552965164,0.0,0.0,0.0,0.019999999552965164,0.1711854189634323,-0.07422025501728058,9.68933391571045,0.03999999910593033,0.0,0.0,0.0,0.03999999910593033,0.0,0.0,0.0,0.03999999910593033
1779683674615569714,956361,1779683674593300762,imu_link,-0.00213277293369174,0.011340117081999779,-0.619490921497345,-0.7849135398864746,0.0024999999441206455,0.0,0.0,0.0,0.0024999999441206455,0.0,0.0,0.0,0.0024999999441206455,0.0,0.0,0.0,0.019999999552965164,0.0,0.0,0.0,0.019999999552965164,0.0,0.0,0.0,0.019999999552965164,0.1412578970193863,-0.09457096457481384,9.64683723449707,0.03999999910593033,0.0,0.0,0.0,0.03999999910593033,0.0,0.0,0.0,0.03999999910593033
1779683674622330660,956362,1779683674598300762,imu_link,-0.00213277293369174,0.011340117081999779,-0.619490921497345,-0.7849135398864746,0.0024999999441206455,0.0,0.0,0.0,0.0024999999441206455,0.0,0.0,0.0,0.0024999999441206455,0.0,0.0,0.0,0.019999999552965164,0.0,0.0,0.0,0.019999999552965164,0.0,0.0,0.0,0.019999999552965164,0.1412578970193863,-0.09457096457481384,9.64683723449707,0.03999999910593033,0.0,0.0,0.0,0.03999999910593033,0.0,0.0,0.0,0.03999999910593033
1779683674627322026,956363,1779683674634671091,imu_link,-0.0023708671797066927,0.01063449028879404,-0.6194920539855957,-0.7849217653274536,0.0024999999441206455,0.0,0.0,0.0,0.0024999999441206455,0.0,0.0,0.0,0.0024999999441206455,0.0,0.0,0.0,0.019999999552965164,0.0,0.0,0.0,0.019999999552965164,0.0,0.0,0.0,0.019999999552965164,0.17298106849193573,-0.06643909960985184,9.624092102050781,0.03999999910593033,0.0,0.0,0.0,0.03999999910593033,0.0,0.0,0.0,0.03999999910593033
1779683674632686832,956364,1779683674639671091,imu_link,-0.0025436198338866234,0.00991542637348175,-0.6194935441017151,-0.7849294543266296,0.0024999999441206455,0.0,0.0,0.0,0.0024999999441206455,0.0,0.0,0.0,0.0024999999441206455,0.0,0.0,0.0,0.019999999552965164,0.0,0.0,0.0,0.019999999552965164,0.0,0.0,0.0,0.019999999552965164,0.17178396880626678,-0.06823474913835526,9.683947563171387,0.03999999910593033,0.0,0.0,0.0,0.03999999910593033,0.0,0.0,0.0,0.03999999910593033
1779683674638613179,956365,1779683674644671091,imu_link,-0.0025436198338866234,0.00991542637348175,-0.6194935441017151,-0.7849294543266296,0.0024999999441206455,0.0,0.0,0.0,0.0024999999441206455,0.0,0.0,0.0,0.0024999999441206455,0.0,0.0,0.0,0.019999999552965164,0.0,0.0,0.0,0.019999999552965164,0.0,0.0,0.0,0.019999999552965164,0.17178396880626678,-0.06823474913835526,9.683947563171387,0.03999999910593033,0.0,0.0,0.0,0.03999999910593033,0.0,0.0,0.0,0.03999999910593033
1779683674644554614,956366,1779683674649671091,imu_link,-0.0027549148071557283,0.009203147143125534,-0.6194943785667419,-0.784936785697937,0.0024999999441206455,0.0,0.0,0.0,0.0024999999441206455,0.0,0.0,0.0,0.0024999999441206455,0.0,0.0,0.0,0.019999999552965164,0.0,0.0,0.0,0.019999999552965164,0.0,0.0,0.0,0.019999999552965164,0.1646013706922531,-0.058059390634298325,9.606734275817871,0.03999999910593033,0.0,0.0,0.0,0.03999999910593033,0.0,0.0,0.0,0.03999999910593033
1779683674667430417,956367,1779683674658671091,imu_link,-0.002112568123266101,0.008222526870667934,-0.6195032000541687,-0.7849427461624146,0.0024999999441206455,0.0,0.0,0.0,0.0024999999441206455,0.0,0.0,0.0,0.0024999999441206455,0.0,0.0,0.0,0.019999999552965164,0.0,0.0,0.0,0.019999999552965164,0.0,0.0,0.0,0.019999999552965164,0.14365209639072418,-0.06584054231643677,9.66299819946289,0.03999999910593033,0.0,0.0,0.0,0.03999999910593033,0.0,0.0,0.0,0.03999999910593033
1779683674673281068,956368,1779683674663671091,imu_link,-0.002112568123266101,0.008222526870667934,-0.6195032000541687,-0.7849427461624146,0.0024999999441206455,0.0,0.0,0.0,0.0024999999441206455,0.0,0.0,0.0,0.0024999999441206455,0.0,0.0,0.0,0.019999999552965164,0.0,0.0,0.0,0.019999999552965164,0.0,0.0,0.0,0.019999999552965164,0.14365209639072418,-0.06584054231643677,9.66299819946289,0.03999999910593033,0.0,0.0,0.0,0.03999999910593033,0.0,0.0,0.0,0.03999999910593033
1779683674695362513,956369,1779683674710671091,imu_link,-0.0035528417211025953,0.003730927826836705,-0.6195005178451538,-0.7849738001823425,0.0024999999441206455,0.0,0.0,0.0,0.0024999999441206455,0.0,0.0,0.0,0.0024999999441206455,0.0,0.0,0.0,0.019999999552965164,0.0,0.0,0.0,0.019999999552965164,0.0,0.0,0.0,0.019999999552965164,0.13347674906253815,-0.041299980133771896,9.692925453186035,0.03999999910593033,0.0,0.0,0.0,0.03999999910593033,0.0,0.0,0.0,0.03999999910593033
1779683674700661619,956370,1779683674712671091,imu_link,-0.003499893005937338,0.004411038476973772,-0.619500994682312,-0.784970223903656,0.0024999999441206455,0.0,0.0,0.0,0.0024999999441206455,0.0,0.0,0.0,0.0024999999441206455,0.0,0.0,0.0,0.019999999552965164,0.0,0.0,0.0,0.019999999552965164,0.0,0.0,0.0,0.019999999552965164,0.166995570063591,-0.05386953800916672,9.622895240783691,0.03999999910593033,0.0,0.0,0.0,0.03999999910593033,0.0,0.0,0.0,0.03999999910593033
1779683674707026870,956371,1779683674717671091,imu_link,-0.003499893005937338,0.004411038476973772,-0.619500994682312,-0.784970223903656,0.0024999999441206455,0.0,0.0,0.0,0.0024999999441206455,0.0,0.0,0.0,0.0024999999441206455,0.0,0.0,0.0,0.019999999552965164,0.0,0.0,0.0,0.019999999552965164,0.0,0.0,0.0,0.019999999552965164,0.166995570063591,-0.05386953800916672,9.622895240783691,0.03999999910593033,0.0,0.0,0.0,0.03999999910593033,0.0,0.0,0.0,0.03999999910593033
1779683674712718284,956372,1779683674722671091,imu_link,-0.0032353743445128202,0.0051053245551884174,-0.6195023059844971,-0.7849661111831665,0.0024999999441206455,0.0,0.0,0.0,0.0024999999441206455,0.0,0.0,0.0,0.0024999999441206455,0.0,0.0,0.0,0.019999999552965164,0.0,0.0,0.0,0.019999999552965164,0.0,0.0,0.0,0.019999999552965164,0.1562216579914093,-0.07960720360279083,9.63187313079834,0.03999999910593033,0.0,0.0,0.0,0.03999999910593033,0.0,0.0,0.0,0.03999999910593033
1779683674717898682,956373,1779683674727671091,imu_link,-0.0033301326911896467,0.005837448872625828,-0.6195011138916016,-0.7849615216255188,0.0024999999441206455,0.0,0.0,0.0,0.0024999999441206455,0.0,0.0,0.0,0.0024999999441206455,0.0,0.0,0.0,0.019999999552965164,0.0,0.0,0.0,0.019999999552965164,0.0,0.0,0.0,0.019999999552965164,0.1801636815071106,-0.05027823522686958,9.672574996948242,0.03999999910593033,0.0,0.0,0.0,0.03999999910593033,0.0,0.0,0.0,0.03999999910593033
1779683674723724838,956374,1779683674732671091,imu_link,-0.0033301326911896467,0.005837448872625828,-0.6195011138916016,-0.7849615216255188,0.0024999999441206455,0.0,0.0,0.0,0.0024999999441206455,0.0,0.0,0.0,0.0024999999441206455,0.0,0.0,0.0,0.019999999552965164,0.0,0.0,0.0,0.019999999552965164,0.0,0.0,0.0,0.019999999552965164,0.1801636815071106,-0.05027823522686958,9.672574996948242,0.03999999910593033,0.0,0.0,0.0,0.03999999910593033,0.0,0.0,0.0,0.03999999910593033
1779683674729824974,956375,1779683674737671091,imu_link,-0.0031635130289942026,0.0065605370327830315,-0.6195012927055359,-0.7849562764167786,0.0024999999441206455,0.0,0.0,0.0,0.0024999999441206455,0.0,0.0,0.0,0.0024999999441206455,0.0,0.0,0.0,0.019999999552965164,0.0,0.0,0.0,0.019999999552965164,0.0,0.0,0.0,0.019999999552965164,0.15143325924873352,-0.04848258197307587,9.63187313079834,0.03999999910593033,0.0,0.0,0.0,0.03999999910593033,0.0,0.0,0.0,0.03999999910593033
1779683674752711512,956376,1779683674746671091,imu_link,-0.0033318032510578632,0.007717997767031193,-0.6194979548454285,-0.7849478721618652,0.0024999999441206455,0.0,0.0,0.0,0.0024999999441206455,0.0,0.0,0.0,0.0024999999441206455,0.0,0.0,0.0,0.019999999552965164,0.0,0.0,0.0,0.019999999552965164,0.0,0.0,0.0,0.019999999552965164,0.16519992053508759,-0.04668693244457245,9.64683723449707,0.03999999910593033,0.0,0.0,0.0,0.03999999910593033,0.0,0.0,0.0,0.03999999910593033
1779683674774046633,956377,1779683674787671091,imu_link,-0.002282756147906184,0.011186552233994007,-0.6194949150085449,-0.7849122881889343,0.0024999999441206455,0.0,0.0,0.0,0.0024999999441206455,0.0,0.0,0.0,0.0024999999441206455,0.0,0.0,0.0,0.019999999552965164,0.0,0.0,0.0,0.019999999552965164,0.0,0.0,0.0,0.019999999552965164,0.1777694672346115,-0.07242459803819656,9.622296333312988,0.03999999910593033,0.0,0.0,0.0,0.03999999910593033,0.0,0.0,0.0,0.03999999910593033
1779683674779702976,956378,1779683674789671091,imu_link,-0.002438374562188983,0.010521908290684223,-0.6194965839385986,-0.7849196195602417,0.0024999999441206455,0.0,0.0,0.0,0.0024999999441206455,0.0,0.0,0.0,0.0024999999441206455,0.0,0.0,0.0,0.019999999552965164,0.0,0.0,0.0,0.019999999552965164,0.0,0.0,0.0,0.019999999552965164,0.17417816817760468,-0.07062894850969315,9.660603523254395,0.03999999910593033,0.0,0.0,0.0,0.03999999910593033,0.0,0.0,0.0,0.03999999910593033
1779683674785620220,956379,1779683674794671091,imu_link,-0.002438374562188983,0.010521908290684223,-0.6194965839385986,-0.7849196195602417,0.0024999999441206455,0.0,0.0,0.0,0.0024999999441206455,0.0,0.0,0.0,0.0024999999441206455,0.0,0.0,0.0,0.019999999552965164,0.0,0.0,0.0,0.019999999552965164,0.0,0.0,0.0,0.019999999552965164,0.17417816817760468,-0.07062894850969315,9.660603523254395,0.03999999910593033,0.0,0.0,0.0,0.03999999910593033,0.0,0.0,0.0,0.03999999910593033
1779683674791034645,956380,1779683674799671091,imu_link,-0.0025919710751622915,0.009795851074159145,-0.6194981932640076,-0.7849271893501282,0.0024999999441206455,0.0,0.0,0.0,0.0024999999441206455,0.0,0.0,0.0,0.0024999999441206455,0.0,0.0,0.0,0.019999999552965164,0.0,0.0,0.0,0.019999999552965164,0.0,0.0,0.0,0.019999999552965164,0.17298106849193573,-0.07062894850969315,9.615114212036133,0.03999999910593033,0.0,0.0,0.0,0.03999999910593033,0.0,0.0,0.0,0.03999999910593033
1779683674796811518,956381,1779683674804671091,imu_link,-0.002296137623488903,0.009120148606598377,-0.6195034980773926,-0.7849321365356445,0.0024999999441206455,0.0,0.0,0.0,0.0024999999441206455,0.0,0.0,0.0,0.0024999999441206455,0.0,0.0,0.0,0.019999999552965164,0.0,0.0,0.0,0.019999999552965164,0.0,0.0,0.0,0.019999999552965164,0.1364694982767105,-0.06703764945268631,9.77013874053955,0.03999999910593033,0.0,0.0,0.0,0.03999999910593033,0.0,0.0,0.0,0.03999999910593033
1779683674803077168,956382,1779683674809671091,imu_link,-0.002296137623488903,0.009120148606598377,-0.6195034980773926,-0.7849321365356445,0.0024999999441206455,0.0,0.0,0.0,0.0024999999441206455,0.0,0.0,0.0,0.0024999999441206455,0.0,0.0,0.0,0.019999999552965164,0.0,0.0,0.0,0.019999999552965164,0.0,0.0,0.0,0.019999999552965164,0.1364694982767105,-0.06703764945268631,9.77013874053955,0.03999999910593033,0.0,0.0,0.0,0.03999999910593033,0.0,0.0,0.0,0.03999999910593033
1779683674809283590,956383,1779683674814671091,imu_link,-0.0021148507948964834,0.009840231388807297,-0.619502067565918,-0.7849250435829163,0.0024999999441206455,0.0,0.0,0.0,0.0024999999441206455,0.0,0.0,0.0,0.0024999999441206455,0.0,0.0,0.0,0.019999999552965164,0.0,0.0,0.0,0.019999999552965164,0.0,0.0,0.0,0.019999999552965164,0.17896656692028046,-0.09157821536064148,9.649829864501953,0.03999999910593033,0.0,0.0,0.0,0.03999999910593033,0.0,0.0,0.0,0.03999999910593033
1779683674831755000,956384,1779683674823671091,imu_link,-0.003274401882663369,0.009948640130460262,-0.6194906234741211,-0.7849286794662476,0.0024999999441206455,0.0,0.0,0.0,0.0024999999441206455,0.0,0.0,0.0,0.0024999999441206455,0.0,0.0,0.0,0.019999999552965164,0.0,0.0,0.0,0.019999999552965164,0.0,0.0,0.0,0.019999999552965164,0.19033902883529663,-0.07003039866685867,9.690530776977539,0.03999999910593033,0.0,0.0,0.0,0.03999999910593033,0.0,0.0,0.0,0.03999999910593033
1779683674853602308,956385,1779683674868671091,imu_link,-0.0022872115951031446,0.006042359862476587,-0.6195093989372253,-0.7849572896957397,0.0024999999441206455,0.0,0.0,0.0,0.0024999999441206455,0.0,0.0,0.0,0.0024999999441206455,0.0,0.0,0.0,0.019999999552965164,0.0,0.0,0.0,0.019999999552965164,0.0,0.0,0.0,0.019999999552965164,0.15263035893440247,-0.05267243832349777,9.658807754516602,0.03999999910593033,0.0,0.0,0.0,0.03999999910593033,0.0,0.0,0.0,0.03999999910593033
1779683674859268647,956386,1779683674870671091,imu_link,-0.002370208967477083,0.0067216320894658566,-0.619507372379303,-0.7849530577659607,0.0024999999441206455,0.0,0.0,0.0,0.0024999999441206455,0.0,0.0,0.0,0.0024999999441206455,0.0,0.0,0.0,0.019999999552965164,0.0,0.0,0.0,0.019999999552965164,0.0,0.0,0.0,0.019999999552965164,0.15562310814857483,-0.05985504016280174,9.673771858215332,0.03999999910593033,0.0,0.0,0.0,0.03999999910593033,0.0,0.0,0.0,0.03999999910593033
1779683674864700687,956387,1779683674875671091,imu_link,-0.002370208967477083,0.0067216320894658566,-0.619507372379303,-0.7849530577659607,0.0024999999441206455,0.0,0.0,0.0,0.0024999999441206455,0.0,0.0,0.0,0.0024999999441206455,0.0,0.0,0.0,0.019999999552965164,0.0,0.0,0.0,0.019999999552965164,0.0,0.0,0.0,0.019999999552965164,0.15562310814857483,-0.05985504016280174,9.673771858215332,0.03999999910593033,0.0,0.0,0.0,0.03999999910593033,0.0,0.0,0.0,0.03999999910593033
1779683674870195098,956388,1779683674880671091,imu_link,-0.0027521695010364056,0.007358463015407324,-0.6195031404495239,-0.7849493622779846,0.0024999999441206455,0.0,0.0,0.0,0.0024999999441206455,0.0,0.0,0.0,0.0024999999441206455,0.0,0.0,0.0,0.019999999552965164,0.0,0.0,0.0,0.019999999552965164,0.0,0.0,0.0,0.019999999552965164,0.16639702022075653,-0.04908113554120064,9.636063575744629,0.03999999910593033,0.0,0.0,0.0,0.03999999910593033,0.0,0.0,0.0,0.03999999910593033
1779683674876740866,956389,1779683674885671091,imu_link,-0.0030573552940040827,0.008029608987271786,-0.6194990873336792,-0.7849448323249817,0.0024999999441206455,0.0,0.0,0.0,0.0024999999441206455,0.0,0.0,0.0,0.0024999999441206455,0.0,0.0,0.0,0.019999999552965164,0.0,0.0,0.0,0.019999999552965164,0.0,0.0,0.0,0.019999999552965164,0.15083470940589905,-0.047884032130241394,9.657011985778809,0.03999999910593033,0.0,0.0,0.0,0.03999999910593033,0.0,0.0,0.0,0.03999999910593033
1779683674883746583,956390,1779683674890671091,imu_link,-0.0030573552940040827,0.008029608987271786,-0.6194990873336792,-0.7849448323249817,0.0024999999441206455,0.0,0.0,0.0,0.0024999999441206455,0.0,0.0,0.0,0.0024999999441206455,0.0,0.0,0.0,0.019999999552965164,0.0,0.0,0.0,0.019999999552965164,0.0,0.0,0.0,0.019999999552965164,0.15083470940589905,-0.047884032130241394,9.657011985778809,0.03999999910593033,0.0,0.0,0.0,0.03999999910593033,0.0,0.0,0.0,0.03999999910593033
1779683674889043452,956391,1779683674895671091,imu_link,-0.003211808856576681,0.007303653284907341,-0.6194995641708374,-0.7849509716033936,0.0024999999441206455,0.0,0.0,0.0,0.0024999999441206455,0.0,0.0,0.0,0.0024999999441206455,0.0,0.0,0.0,0.019999999552965164,0.0,0.0,0.0,0.019999999552965164,0.0,0.0,0.0,0.019999999552965164,0.15263035893440247,-0.043095629662275314,9.640851974487305,0.03999999910593033,0.0,0.0,0.0,0.03999999910593033,0.0,0.0,0.0,0.03999999910593033
1779683674911553317,956392,1779683674904671091,imu_link,-0.0038113247137516737,0.008307786658406258,-0.6194925308227539,-0.7849439382553101,0.0024999999441206455,0.0,0.0,0.0,0.0024999999441206455,0.0,0.0,0.0,0.0024999999441206455,0.0,0.0,0.0,0.019999999552965164,0.0,0.0,0.0,0.019999999552965164,0.0,0.0,0.0,0.019999999552965164,0.16879121959209442,-0.041299980133771896,9.675567626953125,0.03999999910593033,0.0,0.0,0.0,0.03999999910593033,0.0,0.0,0.0,0.03999999910593033
1779683674918013073,956393,1779683674909671091,imu_link,-0.0038113247137516737,0.008307786658406258,-0.6194925308227539,-0.7849439382553101,0.0024999999441206455,0.0,0.0,0.0,0.0024999999441206455,0.0,0.0,0.0,0.0024999999441206455,0.0,0.0,0.0,0.019999999552965164,0.0,0.0,0.0,0.019999999552965164,0.0,0.0,0.0,0.019999999552965164,0.16879121959209442,-0.041299980133771896,9.675567626953125,0.03999999910593033,0.0,0.0,0.0,0.03999999910593033,0.0,0.0,0.0,0.03999999910593033
1779683674939138651,956394,1779683674950671091,imu_link,0.0003089150704909116,0.008439031429588795,-0.6195235252380371,-0.7849271893501282,0.0024999999441206455,0.0,0.0,0.0,0.0024999999441206455,0.0,0.0,0.0,0.0024999999441206455,0.0,0.0,0.0,0.019999999552965164,0.0,0.0,0.0,0.019999999552965164,0.0,0.0,0.0,0.019999999552965164,0.1562216579914093,-0.06165069341659546,9.630077362060547,0.03999999910593033,0.0,0.0,0.0,0.03999999910593033,0.0,0.0,0.0,0.03999999910593033
1779683674945223083,956395,1779683674952671091,imu_link,-0.0003646110708359629,0.008568578399717808,-0.6195183992385864,-0.7849298715591431,0.0024999999441206455,0.0,0.0,0.0,0.0024999999441206455,0.0,0.0,0.0,0.0024999999441206455,0.0,0.0,0.0,0.019999999552965164,0.0,0.0,0.0,0.019999999552965164,0.0,0.0,0.0,0.019999999552965164,0.18794482946395874,-0.05027823522686958,9.640253067016602,0.03999999910593033,0.0,0.0,0.0,0.03999999910593033,0.0,0.0,0.0,0.03999999910593033
1779683674950516931,956396,1779683674957671091,imu_link,-0.0003646110708359629,0.008568578399717808,-0.6195183992385864,-0.7849298715591431,0.0024999999441206455,0.0,0.0,0.0,0.0024999999441206455,0.0,0.0,0.0,0.0024999999441206455,0.0,0.0,0.0,0.019999999552965164,0.0,0.0,0.0,0.019999999552965164,0.0,0.0,0.0,0.019999999552965164,0.18794482946395874,-0.05027823522686958,9.640253067016602,0.03999999910593033,0.0,0.0,0.0,0.03999999910593033,0.0,0.0,0.0,0.03999999910593033
1779683674955855881,956397,1779683674962671091,imu_link,-0.0010685207089409232,0.008806881494820118,-0.619512140750885,-0.7849315404891968,0.0024999999441206455,0.0,0.0,0.0,0.0024999999441206455,0.0,0.0,0.0,0.0024999999441206455,0.0,0.0,0.0,0.019999999552965164,0.0,0.0,0.0,0.019999999552965164,0.0,0.0,0.0,0.019999999552965164,0.16220715641975403,-0.07900865375995636,9.66419506072998,0.03999999910593033,0.0,0.0,0.0,0.03999999910593033,0.0,0.0,0.0,0.03999999910593033
1779683674961501761,956398,1779683674967671091,imu_link,-0.001287552178837359,0.00810246355831623,-0.6195135712623596,-0.7849376797676086,0.0024999999441206455,0.0,0.0,0.0,0.0024999999441206455,0.0,0.0,0.0,0.0024999999441206455,0.0,0.0,0.0,0.019999999552965164,0.0,0.0,0.0,0.019999999552965164,0.0,0.0,0.0,0.019999999552965164,0.12270283699035645,-0.05506663769483566,9.63306999206543,0.03999999910593033,0.0,0.0,0.0,0.03999999910593033,0.0,0.0,0.0,0.03999999910593033
1779683674967461811,956399,1779683674972671091,imu_link,-0.001287552178837359,0.00810246355831623,-0.6195135712623596,-0.7849376797676086,0.0024999999441206455,0.0,0.0,0.0,0.0024999999441206455,0.0,0.0,0.0,0.0024999999441206455,0.0,0.0,0.0,0.019999999552965164,0.0,0.0,0.0,0.019999999552965164,0.0,0.0,0.0,0.019999999552965164,0.12270283699035645,-0.05506663769483566,9.63306999206543,0.03999999910593033,0.0,0.0,0.0,0.03999999910593033,0.0,0.0,0.0,0.03999999910593033
1779683674973386628,956400,1779683674977671091,imu_link,-0.0019954838789999485,0.008324873633682728,-0.619507372379303,-0.784938633441925,0.0024999999441206455,0.0,0.0,0.0,0.0024999999441206455,0.0,0.0,0.0,0.0024999999441206455,0.0,0.0,0.0,0.019999999552965164,0.0,0.0,0.0,0.019999999552965164,0.0,0.0,0.0,0.019999999552965164,0.1759738177061081,-0.050876785069704056,9.608530044555664,0.03999999910593033,0.0,0.0,0.0,0.03999999910593033,0.0,0.0,0.0,0.03999999910593033
1779683674996414662,956401,1779683674986671091,imu_link,-0.0018596355803310871,0.00948009267449379,-0.6195038557052612,-0.7849286794662476,0.0024999999441206455,0.0,0.0,0.0,0.0024999999441206455,0.0,0.0,0.0,0.0024999999441206455,0.0,0.0,0.0,0.019999999552965164,0.0,0.0,0.0,0.019999999552965164,0.0,0.0,0.0,0.019999999552965164,0.15263035893440247,-0.07242459803819656,9.59296703338623,0.03999999910593033,0.0,0.0,0.0,0.03999999910593033,0.0,0.0,0.0,0.03999999910593033
1779683675017691037,956402,1779683675031671091,imu_link,-0.0022767295595258474,0.0054741813801229,-0.6195129156112671,-0.7849586009979248,0.0024999999441206455,0.0,0.0,0.0,0.0024999999441206455,0.0,0.0,0.0,0.0024999999441206455,0.0,0.0,0.0,0.019999999552965164,0.0,0.0,0.0,0.019999999552965164,0.0,0.0,0.0,0.019999999552965164,0.14185644686222076,-0.06165069341659546,9.670180320739746,0.03999999910593033,0.0,0.0,0.0,0.03999999910593033,0.0,0.0,0.0,0.03999999910593033
1779683675026121724,956403,1779683675033671091,imu_link,-0.002404560334980488,0.006148504093289375,-0.6195109486579895,-0.7849547863006592,0.0024999999441206455,0.0,0.0,0.0,0.0024999999441206455,0.0,0.0,0.0,0.0024999999441206455,0.0,0.0,0.0,0.019999999552965164,0.0,0.0,0.0,0.019999999552965164,0.0,0.0,0.0,0.019999999552965164,0.16220715641975403,-0.058059390634298325,9.668384552001953,0.03999999910593033,0.0,0.0,0.0,0.03999999910593033,0.0,0.0,0.0,0.03999999910593033
1779683675032075756,956404,1779683675038671091,imu_link,-0.002404560334980488,0.006148504093289375,-0.6195109486579895,-0.7849547863006592,0.0024999999441206455,0.0,0.0,0.0,0.0024999999441206455,0.0,0.0,0.0,0.0024999999441206455,0.0,0.0,0.0,0.019999999552965164,0.0,0.0,0.0,0.019999999552965164,0.0,0.0,0.0,0.019999999552965164,0.16220715641975403,-0.058059390634298325,9.668384552001953,0.03999999910593033,0.0,0.0,0.0,0.03999999910593033,0.0,0.0,0.0,0.03999999910593033
1779683675037583574,956405,1779683675043671091,imu_link,-0.002691888716071844,0.006833923980593681,-0.6195076107978821,-0.7849507927894592,0.0024999999441206455,0.0,0.0,0.0,0.0024999999441206455,0.0,0.0,0.0,0.0024999999441206455,0.0,0.0,0.0,0.019999999552965164,0.0,0.0,0.0,0.019999999552965164,0.0,0.0,0.0,0.019999999552965164,0.1843535304069519,-0.05446808785200119,9.697114944458008,0.03999999910593033,0.0,0.0,0.0,0.03999999910593033,0.0,0.0,0.0,0.03999999910593033
1779683675043478063,956406,1779683675048671091,imu_link,-0.002665427513420582,0.007571252062916756,-0.6195060610771179,-0.7849453687667847,0.0024999999441206455,0.0,0.0,0.0,0.0024999999441206455,0.0,0.0,0.0,0.0024999999441206455,0.0,0.0,0.0,0.019999999552965164,0.0,0.0,0.0,0.019999999552965164,0.0,0.0,0.0,0.019999999552965164,0.17717091739177704,-0.07661445438861847,9.585784912109375,0.03999999910593033,0.0,0.0,0.0,0.03999999910593033,0.0,0.0,0.0,0.03999999910593033
1779683675048875568,956407,1779683675053671091,imu_link,-0.002665427513420582,0.007571252062916756,-0.6195060610771179,-0.7849453687667847,0.0024999999441206455,0.0,0.0,0.0,0.0024999999441206455,0.0,0.0,0.0,0.0024999999441206455,0.0,0.0,0.0,0.019999999552965164,0.0,0.0,0.0,0.019999999552965164,0.0,0.0,0.0,0.019999999552965164,0.17717091739177704,-0.07661445438861847,9.585784912109375,0.03999999910593033,0.0,0.0,0.0,0.03999999910593033,0.0,0.0,0.0,0.03999999910593033
1779683675054821595,956408,1779683675058671091,imu_link,-0.0027398737147450447,0.008309380151331425,-0.6195034384727478,-0.7849397659301758,0.0024999999441206455,0.0,0.0,0.0,0.0024999999441206455,0.0,0.0,0.0,0.0024999999441206455,0.0,0.0,0.0,0.019999999552965164,0.0,0.0,0.0,0.019999999552965164,0.0,0.0,0.0,0.019999999552965164,0.17417816817760468,-0.06763619929552078,9.673771858215332,0.03999999910593033,0.0,0.0,0.0,0.03999999910593033,0.0,0.0,0.0,0.03999999910593033
1779683675077578706,956409,1779683675067671091,imu_link,-0.0038144714199006557,0.007848766632378101,-0.6194955706596375,-0.7849462032318115,0.0024999999441206455,0.0,0.0,0.0,0.0024999999441206455,0.0,0.0,0.0,0.0024999999441206455,0.0,0.0,0.0,0.019999999552965164,0.0,0.0,0.0,0.019999999552965164,0.0,0.0,0.0,0.019999999552965164,0.15921440720558167,-0.05267243832349777,9.603142738342285,0.03999999910593033,0.0,0.0,0.0,0.03999999910593033,0.0,0.0,0.0,0.03999999910593033
1779683675082986097,956410,1779683675072671091,imu_link,-0.0038144714199006557,0.007848766632378101,-0.6194955706596375,-0.7849462032318115,0.0024999999441206455,0.0,0.0,0.0,0.0024999999441206455,0.0,0.0,0.0,0.0024999999441206455,0.0,0.0,0.0,0.019999999552965164,0.0,0.0,0.0,0.019999999552965164,0.0,0.0,0.0,0.019999999552965164,0.15921440720558167,-0.05267243832349777,9.603142738342285,0.03999999910593033,0.0,0.0,0.0,0.03999999910593033,0.0,0.0,0.0,0.03999999910593033
1779683675104459392,956411,1779683675115671091,imu_link,-0.003296495880931616,0.012137578800320625,-0.6194862127304077,-0.7849013805389404,0.0024999999441206455,0.0,0.0,0.0,0.0024999999441206455,0.0,0.0,0.0,0.0024999999441206455,0.0,0.0,0.0,0.019999999552965164,0.0,0.0,0.0,0.019999999552965164,0.0,0.0,0.0,0.019999999552965164,0.17417816817760468,-0.046088382601737976,9.625288963317871,0.03999999910593033,0.0,0.0,0.0,0.03999999910593033,0.0,0.0,0.0,0.03999999910593033
1779683675110357041,956412,1779683675117671091,imu_link,-0.003212059149518609,0.011455237865447998,-0.619490385055542,-0.7849085927009583,0.0024999999441206455,0.0,0.0,0.0,0.0024999999441206455,0.0,0.0,0.0,0.0024999999441206455,0.0,0.0,0.0,0.019999999552965164,0.0,0.0,0.0,0.019999999552965164,0.0,0.0,0.0,0.019999999552965164,0.14425064623355865,-0.04728548228740692,9.643245697021484,0.03999999910593033,0.0,0.0,0.0,0.03999999910593033,0.0,0.0,0.0,0.03999999910593033
1779683675116259327,956413,1779683675122671091,imu_link,-0.003212059149518609,0.011455237865447998,-0.619490385055542,-0.7849085927009583,0.0024999999441206455,0.0,0.0,0.0,0.0024999999441206455,0.0,0.0,0.0,0.0024999999441206455,0.0,0.0,0.0,0.019999999552965164,0.0,0.0,0.0,0.019999999552965164,0.0,0.0,0.0,0.019999999552965164,0.14425064623355865,-0.04728548228740692,9.643245697021484,0.03999999910593033,0.0,0.0,0.0,0.03999999910593033,0.0,0.0,0.0,0.03999999910593033
1779683675122278698,956414,1779683675127671091,imu_link,-0.003052967134863138,0.010730745270848274,-0.6194952726364136,-0.784915566444397,0.0024999999441206455,0.0,0.0,0.0,0.0024999999441206455,0.0,0.0,0.0,0.0024999999441206455,0.0,0.0,0.0,0.019999999552965164,0.0,0.0,0.0,0.019999999552965164,0.0,0.0,0.0,0.019999999552965164,0.152031809091568,-0.05925649031996727,9.622296333312988,0.03999999910593033,0.0,0.0,0.0,0.03999999910593033,0.0,0.0,0.0,0.03999999910593033
1779683675127306779,956415,1779683675132671091,imu_link,-0.0029493316542357206,0.010000073350965977,-0.6194992661476135,-0.7849224805831909,0.0024999999441206455,0.0,0.0,0.0,0.0024999999441206455,0.0,0.0,0.0,0.0024999999441206455,0.0,0.0,0.0,0.019999999552965164,0.0,0.0,0.0,0.019999999552965164,0.0,0.0,0.0,0.019999999552965164,0.15801730751991272,-0.058059390634298325,9.674968719482422,0.03999999910593033,0.0,0.0,0.0,0.03999999910593033,0.0,0.0,0.0,0.03999999910593033
1779683675133293820,956416,1779683675137671091,imu_link,-0.0029493316542357206,0.010000073350965977,-0.6194992661476135,-0.7849224805831909,0.0024999999441206455,0.0,0.0,0.0,0.0024999999441206455,0.0,0.0,0.0,0.0024999999441206455,0.0,0.0,0.0,0.019999999552965164,0.0,0.0,0.0,0.019999999552965164,0.0,0.0,0.0,0.019999999552965164,0.15801730751991272,-0.058059390634298325,9.674968719482422,0.03999999910593033,0.0,0.0,0.0,0.03999999910593033,0.0,0.0,0.0,0.03999999910593033
1779683675138991831,956417,1779683675142671091,imu_link,-0.0030203666538000107,0.00926124956458807,-0.6195012331008911,-0.7849296927452087,0.0024999999441206455,0.0,0.0,0.0,0.0024999999441206455,0.0,0.0,0.0,0.0024999999441206455,0.0,0.0,0.0,0.019999999552965164,0.0,0.0,0.0,0.019999999552965164,0.0,0.0,0.0,0.019999999552965164,0.15981295704841614,-0.04908113554120064,9.647435188293457,0.03999999910593033,0.0,0.0,0.0,0.03999999910593033,0.0,0.0,0.0,0.03999999910593033
1779683675161633458,956418,1779683675151671091,imu_link,-0.002786783268675208,0.008120971731841564,-0.6195068359375,-0.7849388718605042,0.0024999999441206455,0.0,0.0,0.0,0.0024999999441206455,0.0,0.0,0.0,0.0024999999441206455,0.0,0.0,0.0,0.019999999552965164,0.0,0.0,0.0,0.019999999552965164,0.0,0.0,0.0,0.019999999552965164,0.1364694982767105,-0.04489128291606903,9.644442558288574,0.03999999910593033,0.0,0.0,0.0,0.03999999910593033,0.0,0.0,0.0,0.03999999910593033
1779683675183412291,956419,1779683675194671091,imu_link,-0.005919685121625662,0.005926407407969236,-0.6194831728935242,-0.7849597930908203,0.0024999999441206455,0.0,0.0,0.0,0.0024999999441206455,0.0,0.0,0.0,0.0024999999441206455,0.0,0.0,0.0,0.019999999552965164,0.0,0.0,0.0,0.019999999552965164,0.0,0.0,0.0,0.019999999552965164,0.1562216579914093,-0.052073884755373,9.631275177001953,0.03999999910593033,0.0,0.0,0.0,0.03999999910593033,0.0,0.0,0.0,0.03999999910593033
1779683675189266188,956420,1779683675196671091,imu_link,-0.005534544121474028,0.00649006012827158,-0.6194867491722107,-0.7849553227424622,0.0024999999441206455,0.0,0.0,0.0,0.0024999999441206455,0.0,0.0,0.0,0.0024999999441206455,0.0,0.0,0.0,0.019999999552965164,0.0,0.0,0.0,0.019999999552965164,0.0,0.0,0.0,0.019999999552965164,0.1801636815071106,-0.043095629662275314,9.661800384521484,0.03999999910593033,0.0,0.0,0.0,0.03999999910593033,0.0,0.0,0.0,0.03999999910593033
1779683675195704417,956421,1779683675201671091,imu_link,-0.005534544121474028,0.00649006012827158,-0.6194867491722107,-0.7849553227424622,0.0024999999441206455,0.0,0.0,0.0,0.0024999999441206455,0.0,0.0,0.0,0.0024999999441206455,0.0,0.0,0.0,0.019999999552965164,0.0,0.0,0.0,0.019999999552965164,0.0,0.0,0.0,0.019999999552965164,0.1801636815071106,-0.043095629662275314,9.661800384521484,0.03999999910593033,0.0,0.0,0.0,0.03999999910593033,0.0,0.0,0.0,0.03999999910593033
1779683675201412426,956422,1779683675206671091,imu_link,-0.005019716918468475,0.007026160601526499,-0.6194911599159241,-0.7849507331848145,0.0024999999441206455,0.0,0.0,0.0,0.0024999999441206455,0.0,0.0,0.0,0.0024999999441206455,0.0,0.0,0.0,0.019999999552965164,0.0,0.0,0.0,0.019999999552965164,0.0,0.0,0.0,0.019999999552965164,0.17477671802043915,-0.07122749835252762,9.622895240783691,0.03999999910593033,0.0,0.0,0.0,0.03999999910593033,0.0,0.0,0.0,0.03999999910593033
1779683675207540174,956423,1779683675211671091,imu_link,-0.00428663520142436,0.007109908387064934,-0.6194972395896912,-0.7849494218826294,0.0024999999441206455,0.0,0.0,0.0,0.0024999999441206455,0.0,0.0,0.0,0.0024999999441206455,0.0,0.0,0.0,0.019999999552965164,0.0,0.0,0.0,0.019999999552965164,0.0,0.0,0.0,0.019999999552965164,0.1496376097202301,-0.0347159244120121,9.634267807006836,0.03999999910593033,0.0,0.0,0.0,0.03999999910593033,0.0,0.0,0.0,0.03999999910593033
1779683675214178432,956424,1779683675216671091,imu_link,-0.00428663520142436,0.007109908387064934,-0.6194972395896912,-0.7849494218826294,0.0024999999441206455,0.0,0.0,0.0,0.0024999999441206455,0.0,0.0,0.0,0.0024999999441206455,0.0,0.0,0.0,0.019999999552965164,0.0,0.0,0.0,0.019999999552965164,0.0,0.0,0.0,0.019999999552965164,0.1496376097202301,-0.0347159244120121,9.634267807006836,0.03999999910593033,0.0,0.0,0.0,0.03999999910593033,0.0,0.0,0.0,0.03999999910593033
1779683675219870006,956425,1779683675221671091,imu_link,-0.0035960611421614885,0.007388022728264332,-0.6195025444030762,-0.7849463224411011,0.0024999999441206455,0.0,0.0,0.0,0.0024999999441206455,0.0,0.0,0.0,0.0024999999441206455,0.0,0.0,0.0,0.019999999552965164,0.0,0.0,0.0,0.019999999552965164,0.0,0.0,0.0,0.019999999552965164,0.15263035893440247,-0.03890577703714371,9.601346969604492,0.03999999910593033,0.0,0.0,0.0,0.03999999910593033,0.0,0.0,0.0,0.03999999910593033
1779683675242811408,956426,1779683675230671091,imu_link,-0.002463804790750146,0.007659109774976969,-0.6195107102394104,-0.784941554069519,0.0024999999441206455,0.0,0.0,0.0,0.0024999999441206455,0.0,0.0,0.0,0.0024999999441206455,0.0,0.0,0.0,0.019999999552965164,0.0,0.0,0.0,0.019999999552965164,0.0,0.0,0.0,0.019999999552965164,0.1412578970193863,-0.0628477931022644,9.634267807006836,0.03999999910593033,0.0,0.0,0.0,0.03999999910593033,0.0,0.0,0.0,0.03999999910593033
1779683675264554612,956427,1779683675279671091,imu_link,-0.00602808827534318,0.005032447632402182,-0.6194851398468018,-0.7849637269973755,0.0024999999441206455,0.0,0.0,0.0,0.0024999999441206455,0.0,0.0,0.0,0.0024999999441206455,0.0,0.0,0.0,0.019999999552965164,0.0,0.0,0.0,0.019999999552965164,0.0,0.0,0.0,0.019999999552965164,0.14604629576206207,-0.032920271158218384,9.639056205749512,0.03999999910593033,0.0,0.0,0.0,0.03999999910593033,0.0,0.0,0.0,0.03999999910593033
1779683675270459696,956428,1779683675281671091,imu_link,-0.005489558447152376,0.005451846402138472,-0.6194897890090942,-0.7849612236022949,0.0024999999441206455,0.0,0.0,0.0,0.0024999999441206455,0.0,0.0,0.0,0.0024999999441206455,0.0,0.0,0.0,0.019999999552965164,0.0,0.0,0.0,0.019999999552965164,0.0,0.0,0.0,0.019999999552965164,0.1478419452905655,-0.0454898327589035,9.650428771972656,0.03999999910593033,0.0,0.0,0.0,0.03999999910593033,0.0,0.0,0.0,0.03999999910593033
1779683675275821838,956429,1779683675286671091,imu_link,-0.005489558447152376,0.005451846402138472,-0.6194897890090942,-0.7849612236022949,0.0024999999441206455,0.0,0.0,0.0,0.0024999999441206455,0.0,0.0,0.0,0.0024999999441206455,0.0,0.0,0.0,0.019999999552965164,0.0,0.0,0.0,0.019999999552965164,0.0,0.0,0.0,0.019999999552965164,0.1478419452905655,-0.0454898327589035,9.650428771972656,0.03999999910593033,0.0,0.0,0.0,0.03999999910593033,0.0,0.0,0.0,0.03999999910593033
1779683675281361512,956430,1779683675291671091,imu_link,-0.0049291313625872135,0.005935510620474815,-0.6194943189620972,-0.7849577069282532,0.0024999999441206455,0.0,0.0,0.0,0.0024999999441206455,0.0,0.0,0.0,0.0024999999441206455,0.0,0.0,0.0,0.019999999552965164,0.0,0.0,0.0,0.019999999552965164,0.0,0.0,0.0,0.019999999552965164,0.15083470940589905,-0.05386953800916672,9.61331844329834,0.03999999910593033,0.0,0.0,0.0,0.03999999910593033,0.0,0.0,0.0,0.03999999910593033
1779683675286889766,956431,1779683675296671091,imu_link,-0.004253714811056852,0.006236562971025705,-0.6194994449615479,-0.7849553823471069,0.0024999999441206455,0.0,0.0,0.0,0.0024999999441206455,0.0,0.0,0.0,0.0024999999441206455,0.0,0.0,0.0,0.019999999552965164,0.0,0.0,0.0,0.019999999552965164,0.0,0.0,0.0,0.019999999552965164,0.13287819921970367,-0.05925649031996727,9.650428771972656,0.03999999910593033,0.0,0.0,0.0,0.03999999910593033,0.0,0.0,0.0,0.03999999910593033
1779683675292399717,956432,1779683675301671091,imu_link,-0.004253714811056852,0.006236562971025705,-0.6194994449615479,-0.7849553823471069,0.0024999999441206455,0.0,0.0,0.0,0.0024999999441206455,0.0,0.0,0.0,0.0024999999441206455,0.0,0.0,0.0,0.019999999552965164,0.0,0.0,0.0,0.019999999552965164,0.0,0.0,0.0,0.019999999552965164,0.13287819921970367,-0.05925649031996727,9.650428771972656,0.03999999910593033,0.0,0.0,0.0,0.03999999910593033,0.0,0.0,0.0,0.03999999910593033
1779683675298745095,956433,1779683675306671091,imu_link,-0.003901468124240637,0.006892407312989235,-0.619501531124115,-0.7849499583244324,0.0024999999441206455,0.0,0.0,0.0,0.0024999999441206455,0.0,0.0,0.0,0.0024999999441206455,0.0,0.0,0.0,0.019999999552965164,0.0,0.0,0.0,0.019999999552965164,0.0,0.0,0.0,0.019999999552965164,0.1646013706922531,-0.05446808785200119,9.648633003234863,0.03999999910593033,0.0,0.0,0.0,0.03999999910593033,0.0,0.0,0.0,0.03999999910593033
1779683675321980597,956434,1779683675315671091,imu_link,-0.0033938337583094835,0.007942103780806065,-0.6195038557052612,-0.7849406003952026,0.0024999999441206455,0.0,0.0,0.0,0.0024999999441206455,0.0,0.0,0.0,0.0024999999441206455,0.0,0.0,0.0,0.019999999552965164,0.0,0.0,0.0,0.019999999552965164,0.0,0.0,0.0,0.019999999552965164,0.16819266974925995,-0.05925649031996727,9.625288963317871,0.03999999910593033,0.0,0.0,0.0,0.03999999910593033,0.0,0.0,0.0,0.03999999910593033
1779683675327952051,956435,1779683675320671091,imu_link,-0.0033938337583094835,0.007942103780806065,-0.6195038557052612,-0.7849406003952026,0.0024999999441206455,0.0,0.0,0.0,0.0024999999441206455,0.0,0.0,0.0,0.0024999999441206455,0.0,0.0,0.0,0.019999999552965164,0.0,0.0,0.0,0.019999999552965164,0.0,0.0,0.0,0.019999999552965164,0.16819266974925995,-0.05925649031996727,9.625288963317871,0.03999999910593033,0.0,0.0,0.0,0.03999999910593033,0.0,0.0,0.0,0.03999999910593033
1779683675349144830,956436,1779683675359671091,imu_link,-0.00038138392847031355,0.010460645891726017,-0.619518518447876,-0.7849067449569702,0.0024999999441206455,0.0,0.0,0.0,0.0024999999441206455,0.0,0.0,0.0,0.0024999999441206455,0.0,0.0,0.0,0.019999999552965164,0.0,0.0,0.0,0.019999999552965164,0.0,0.0,0.0,0.019999999552965164,0.16101005673408508,-0.058059390634298325,9.63067626953125,0.03999999910593033,0.0,0.0,0.0,0.03999999910593033,0.0,0.0,0.0,0.03999999910593033
1779683675353977294,956437,1779683675361671091,imu_link,-0.0009554636781103909,0.010090931318700314,-0.6195157766342163,-0.7849132418632507,0.0024999999441206455,0.0,0.0,0.0,0.0024999999441206455,0.0,0.0,0.0,0.0024999999441206455,0.0,0.0,0.0,0.019999999552965164,0.0,0.0,0.0,0.019999999552965164,0.0,0.0,0.0,0.019999999552965164,0.17058686912059784,-0.03950432687997818,9.641449928283691,0.03999999910593033,0.0,0.0,0.0,0.03999999910593033,0.0,0.0,0.0,0.03999999910593033
1779683675359663893,956438,1779683675366671091,imu_link,-0.0009554636781103909,0.010090931318700314,-0.6195157766342163,-0.7849132418632507,0.0024999999441206455,0.0,0.0,0.0,0.0024999999441206455,0.0,0.0,0.0,0.0024999999441206455,0.0,0.0,0.0,0.019999999552965164,0.0,0.0,0.0,0.019999999552965164,0.0,0.0,0.0,0.019999999552965164,0.17058686912059784,-0.03950432687997818,9.641449928283691,0.03999999910593033,0.0,0.0,0.0,0.03999999910593033,0.0,0.0,0.0,0.03999999910593033
1779683675366207844,956439,1779683675371671091,imu_link,-0.0016186501597985625,0.00976139772683382,-0.6195117831230164,-0.7849195003509521,0.0024999999441206455,0.0,0.0,0.0,0.0024999999441206455,0.0,0.0,0.0,0.0024999999441206455,0.0,0.0,0.0,0.019999999552965164,0.0,0.0,0.0,0.019999999552965164,0.0,0.0,0.0,0.019999999552965164,0.1759738177061081,-0.052073884755373,9.664793968200684,0.03999999910593033,0.0,0.0,0.0,0.03999999910593033,0.0,0.0,0.0,0.03999999910593033
1779683675370930962,956440,1779683675376671091,imu_link,-0.0019070303533226252,0.009080370888113976,-0.6195123791694641,-0.7849265933036804,0.0024999999441206455,0.0,0.0,0.0,0.0024999999441206455,0.0,0.0,0.0,0.0024999999441206455,0.0,0.0,0.0,0.019999999552965164,0.0,0.0,0.0,0.019999999552965164,0.0,0.0,0.0,0.019999999552965164,0.15263035893440247,-0.06643909960985184,9.610325813293457,0.03999999910593033,0.0,0.0,0.0,0.03999999910593033,0.0,0.0,0.0,0.03999999910593033
1779683675376715374,956441,1779683675381671091,imu_link,-0.0019070303533226252,0.009080370888113976,-0.6195123791694641,-0.7849265933036804,0.0024999999441206455,0.0,0.0,0.0,0.0024999999441206455,0.0,0.0,0.0,0.0024999999441206455,0.0,0.0,0.0,0.019999999552965164,0.0,0.0,0.0,0.019999999552965164,0.0,0.0,0.0,0.019999999552965164,0.15263035893440247,-0.06643909960985184,9.610325813293457,0.03999999910593033,0.0,0.0,0.0,0.03999999910593033,0.0,0.0,0.0,0.03999999910593033
1779683675383809479,956442,1779683675386671091,imu_link,-0.0025468661915510893,0.008699221536517143,-0.6195085644721985,-0.7849322557449341,0.0024999999441206455,0.0,0.0,0.0,0.0024999999441206455,0.0,0.0,0.0,0.0024999999441206455,0.0,0.0,0.0,0.019999999552965164,0.0,0.0,0.0,0.019999999552965164,0.0,0.0,0.0,0.019999999552965164,0.16400282084941864,-0.046088382601737976,9.604339599609375,0.03999999910593033,0.0,0.0,0.0,0.03999999910593033,0.0,0.0,0.0,0.03999999910593033
1779683675406821242,956443,1779683675395671091,imu_link,-0.0037075462751090527,0.008588669821619987,-0.6194986701011658,-0.7849364280700684,0.0024999999441206455,0.0,0.0,0.0,0.0024999999441206455,0.0,0.0,0.0,0.0024999999441206455,0.0,0.0,0.0,0.019999999552965164,0.0,0.0,0.0,0.019999999552965164,0.0,0.0,0.0,0.019999999552965164,0.16639702022075653,-0.05746084079146385,9.601945877075195,0.03999999910593033,0.0,0.0,0.0,0.03999999910593033,0.0,0.0,0.0,0.03999999910593033
1779683675428476973,956444,1779683675437671091,imu_link,-0.0004370415990706533,0.0068054767325520515,-0.6195282340049744,-0.784939169883728,0.0024999999441206455,0.0,0.0,0.0,0.0024999999441206455,0.0,0.0,0.0,0.0024999999441206455,0.0,0.0,0.0,0.019999999552965164,0.0,0.0,0.0,0.019999999552965164,0.0,0.0,0.0,0.019999999552965164,0.14724339544773102,-0.058059390634298325,9.642646789550781,0.03999999910593033,0.0,0.0,0.0,0.03999999910593033,0.0,0.0,0.0,0.03999999910593033
1779683675434320306,956445,1779683675439671091,imu_link,-0.000983347068540752,0.007216986268758774,-0.6195234656333923,-0.7849388718605042,0.0024999999441206455,0.0,0.0,0.0,0.0024999999441206455,0.0,0.0,0.0,0.0024999999441206455,0.0,0.0,0.0,0.019999999552965164,0.0,0.0,0.0,0.019999999552965164,0.0,0.0,0.0,0.019999999552965164,0.18315643072128296,-0.05506663769483566,9.647435188293457,0.03999999910593033,0.0,0.0,0.0,0.03999999910593033,0.0,0.0,0.0,0.03999999910593033
1779683675439884166,956446,1779683675444671091,imu_link,-0.000983347068540752,0.007216986268758774,-0.6195234656333923,-0.7849388718605042,0.0024999999441206455,0.0,0.0,0.0,0.0024999999441206455,0.0,0.0,0.0,0.0024999999441206455,0.0,0.0,0.0,0.019999999552965164,0.0,0.0,0.0,0.019999999552965164,0.0,0.0,0.0,0.019999999552965164,0.18315643072128296,-0.05506663769483566,9.647435188293457,0.03999999910593033,0.0,0.0,0.0,0.03999999910593033,0.0,0.0,0.0,0.03999999910593033
1779683675445830480,956447,1779683675449671091,imu_link,-0.001654219813644886,0.007531994953751564,-0.6195178627967834,-0.7849391102790833,0.0024999999441206455,0.0,0.0,0.0,0.0024999999441206455,0.0,0.0,0.0,0.0024999999441206455,0.0,0.0,0.0,0.019999999552965164,0.0,0.0,0.0,0.019999999552965164,0.0,0.0,0.0,0.019999999552965164,0.16340425610542297,-0.04967968538403511,9.607931137084961,0.03999999910593033,0.0,0.0,0.0,0.03999999910593033,0.0,0.0,0.0,0.03999999910593033
1779683675451607648,956448,1779683675454671091,imu_link,-0.0021376812364906073,0.008092362433671951,-0.6195124983787537,-0.7849367260932922,0.0024999999441206455,0.0,0.0,0.0,0.0024999999441206455,0.0,0.0,0.0,0.0024999999441206455,0.0,0.0,0.0,0.019999999552965164,0.0,0.0,0.0,0.019999999552965164,0.0,0.0,0.0,0.019999999552965164,0.16340425610542297,-0.06404489278793335,9.694721221923828,0.03999999910593033,0.0,0.0,0.0,0.03999999910593033,0.0,0.0,0.0,0.03999999910593033
1779683675457709353,956449,1779683675459671091,imu_link,-0.0021376812364906073,0.008092362433671951,-0.6195124983787537,-0.7849367260932922,0.0024999999441206455,0.0,0.0,0.0,0.0024999999441206455,0.0,0.0,0.0,0.0024999999441206455,0.0,0.0,0.0,0.019999999552965164,0.0,0.0,0.0,0.019999999552965164,0.0,0.0,0.0,0.019999999552965164,0.16340425610542297,-0.06404489278793335,9.694721221923828,0.03999999910593033,0.0,0.0,0.0,0.03999999910593033,0.0,0.0,0.0,0.03999999910593033
1779683675463462261,956450,1779683675464671091,imu_link,-0.0015675048343837261,0.007613771129399538,-0.6195182800292969,-0.7849382758140564,0.0024999999441206455,0.0,0.0,0.0,0.0024999999441206455,0.0,0.0,0.0,0.0024999999441206455,0.0,0.0,0.0,0.019999999552965164,0.0,0.0,0.0,0.019999999552965164,0.0,0.0,0.0,0.019999999552965164,0.13706804811954498,-0.06643909960985184,9.625288963317871,0.03999999910593033,0.0,0.0,0.0,0.03999999910593033,0.0,0.0,0.0,0.03999999910593033
1779683675486692340,956451,1779683675473671091,imu_link,-0.002703974721953273,0.007354074157774448,-0.6195108294487,-0.7849434614181519,0.0024999999441206455,0.0,0.0,0.0,0.0024999999441206455,0.0,0.0,0.0,0.0024999999441206455,0.0,0.0,0.0,0.019999999552965164,0.0,0.0,0.0,0.019999999552965164,0.0,0.0,0.0,0.019999999552965164,0.1430535465478897,-0.047884032130241394,9.634267807006836,0.03999999910593033,0.0,0.0,0.0,0.03999999910593033,0.0,0.0,0.0,0.03999999910593033
1779683675508702857,956452,1779683675523671091,imu_link,-0.003324114717543125,0.01183172408491373,-0.6194890737533569,-0.7849037051200867,0.0024999999441206455,0.0,0.0,0.0,0.0024999999441206455,0.0,0.0,0.0,0.0024999999441206455,0.0,0.0,0.0,0.019999999552965164,0.0,0.0,0.0,0.019999999552965164,0.0,0.0,0.0,0.019999999552965164,0.15741875767707825,-0.05506663769483566,9.628880500793457,0.03999999910593033,0.0,0.0,0.0,0.03999999910593033,0.0,0.0,0.0,0.03999999910593033
1779683675514381025,956453,1779683675525671091,imu_link,-0.00344627583399415,0.011158829554915428,-0.6194906830787659,-0.7849116921424866,0.0024999999441206455,0.0,0.0,0.0,0.0024999999441206455,0.0,0.0,0.0,0.0024999999441206455,0.0,0.0,0.0,0.019999999552965164,0.0,0.0,0.0,0.019999999552965164,0.0,0.0,0.0,0.019999999552965164,0.1586158573627472,-0.02274491637945175,9.64564037322998,0.03999999910593033,0.0,0.0,0.0,0.03999999910593033,0.0,0.0,0.0,0.03999999910593033
1779683675520134290,956454,1779683675530671091,imu_link,-0.00344627583399415,0.011158829554915428,-0.6194906830787659,-0.7849116921424866,0.0024999999441206455,0.0,0.0,0.0,0.0024999999441206455,0.0,0.0,0.0,0.0024999999441206455,0.0,0.0,0.0,0.019999999552965164,0.0,0.0,0.0,0.019999999552965164,0.0,0.0,0.0,0.019999999552965164,0.1586158573627472,-0.02274491637945175,9.64564037322998,0.03999999910593033,0.0,0.0,0.0,0.03999999910593033,0.0,0.0,0.0,0.03999999910593033
1779683675525318115,956455,1779683675535671091,imu_link,-0.0034598789643496275,0.010416373610496521,-0.6194934844970703,-0.7849196195602417,0.0024999999441206455,0.0,0.0,0.0,0.0024999999441206455,0.0,0.0,0.0,0.0024999999441206455,0.0,0.0,0.0,0.019999999552965164,0.0,0.0,0.0,0.019999999552965164,0.0,0.0,0.0,0.019999999552965164,0.1604115068912506,-0.04010287672281265,9.676764488220215,0.03999999910593033,0.0,0.0,0.0,0.03999999910593033,0.0,0.0,0.0,0.03999999910593033
1779683675532088844,956456,1779683675540671091,imu_link,-0.003247970947995782,0.009706954471766949,-0.6194981336593628,-0.7849259376525879,0.0024999999441206455,0.0,0.0,0.0,0.0024999999441206455,0.0,0.0,0.0,0.0024999999441206455,0.0,0.0,0.0,0.019999999552965164,0.0,0.0,0.0,0.019999999552965164,0.0,0.0,0.0,0.019999999552965164,0.16819266974925995,-0.05985504016280174,9.616909980773926,0.03999999910593033,0.0,0.0,0.0,0.03999999910593033,0.0,0.0,0.0,0.03999999910593033
1779683675536815978,956457,1779683675545671091,imu_link,-0.003247970947995782,0.009706954471766949,-0.6194981336593628,-0.7849259376525879,0.0024999999441206455,0.0,0.0,0.0,0.0024999999441206455,0.0,0.0,0.0,0.0024999999441206455,0.0,0.0,0.0,0.019999999552965164,0.0,0.0,0.0,0.019999999552965164,0.0,0.0,0.0,0.019999999552965164,0.16819266974925995,-0.05985504016280174,9.616909980773926,0.03999999910593033,0.0,0.0,0.0,0.03999999910593033,0.0,0.0,0.0,0.03999999910593033
1779683675542369709,956458,1779683675550671091,imu_link,-0.0032683464232832193,0.008962196297943592,-0.6195003390312195,-0.7849329710006714,0.0024999999441206455,0.0,0.0,0.0,0.0024999999441206455,0.0,0.0,0.0,0.0024999999441206455,0.0,0.0,0.0,0.019999999552965164,0.0,0.0,0.0,0.019999999552965164,0.0,0.0,0.0,0.019999999552965164,0.17058686912059784,-0.05386953800916672,9.671976089477539,0.03999999910593033,0.0,0.0,0.0,0.03999999910593033,0.0,0.0,0.0,0.03999999910593033
1779683675565400718,956459,1779683675559671091,imu_link,-0.002177425194531679,0.00854836218059063,-0.6195110082626343,-0.7849329113960266,0.0024999999441206455,0.0,0.0,0.0,0.0024999999441206455,0.0,0.0,0.0,0.0024999999441206455,0.0,0.0,0.0,0.019999999552965164,0.0,0.0,0.0,0.019999999552965164,0.0,0.0,0.0,0.019999999552965164,0.14006079733371735,-0.07841010391712189,9.643245697021484,0.03999999910593033,0.0,0.0,0.0,0.03999999910593033,0.0,0.0,0.0,0.03999999910593033
1779683675571187189,956460,1779683675564671091,imu_link,-0.002177425194531679,0.00854836218059063,-0.6195110082626343,-0.7849329113960266,0.0024999999441206455,0.0,0.0,0.0,0.0024999999441206455,0.0,0.0,0.0,0.0024999999441206455,0.0,0.0,0.0,0.019999999552965164,0.0,0.0,0.0,0.019999999552965164,0.0,0.0,0.0,0.019999999552965164,0.14006079733371735,-0.07841010391712189,9.643245697021484,0.03999999910593033,0.0,0.0,0.0,0.03999999910593033,0.0,0.0,0.0,0.03999999910593033
1779683675592784549,956461,1779683675603671091,imu_link,-0.002241965616121888,0.004629430826753378,-0.6195197701454163,-0.7849586606025696,0.0024999999441206455,0.0,0.0,0.0,0.0024999999441206455,0.0,0.0,0.0,0.0024999999441206455,0.0,0.0,0.0,0.019999999552965164,0.0,0.0,0.0,0.019999999552965164,0.0,0.0,0.0,0.019999999552965164,0.1304839849472046,-0.04908113554120064,9.59715747833252,0.03999999910593033,0.0,0.0,0.0,0.03999999910593033,0.0,0.0,0.0,0.03999999910593033
1779683675598314649,956462,1779683675605671091,imu_link,-0.0020974031649529934,0.005296098999679089,-0.6195195913314819,-0.7849549651145935,0.0024999999441206455,0.0,0.0,0.0,0.0024999999441206455,0.0,0.0,0.0,0.0024999999441206455,0.0,0.0,0.0,0.019999999552965164,0.0,0.0,0.0,0.019999999552965164,0.0,0.0,0.0,0.019999999552965164,0.12629413604736328,-0.05686229094862938,9.664793968200684,0.03999999910593033,0.0,0.0,0.0,0.03999999910593033,0.0,0.0,0.0,0.03999999910593033
1779683675603989907,956463,1779683675610671091,imu_link,-0.0020974031649529934,0.005296098999679089,-0.6195195913314819,-0.7849549651145935,0.0024999999441206455,0.0,0.0,0.0,0.0024999999441206455,0.0,0.0,0.0,0.0024999999441206455,0.0,0.0,0.0,0.019999999552965164,0.0,0.0,0.0,0.019999999552965164,0.0,0.0,0.0,0.019999999552965164,0.12629413604736328,-0.05686229094862938,9.664793968200684,0.03999999910593033,0.0,0.0,0.0,0.03999999910593033,0.0,0.0,0.0,0.03999999910593033
1779683675609041030,956464,1779683675615671091,imu_link,-0.0023618817795068026,0.00598950358107686,-0.619516909122467,-0.784951388835907,0.0024999999441206455,0.0,0.0,0.0,0.0024999999441206455,0.0,0.0,0.0,0.0024999999441206455,0.0,0.0,0.0,0.019999999552965164,0.0,0.0,0.0,0.019999999552965164,0.0,0.0,0.0,0.019999999552965164,0.15741875767707825,-0.047884032130241394,9.639056205749512,0.03999999910593033,0.0,0.0,0.0,0.03999999910593033,0.0,0.0,0.0,0.03999999910593033
1779683675615446075,956465,1779683675620671091,imu_link,-0.0025207335129380226,0.006712370086461306,-0.6195144057273865,-0.7849469780921936,0.0024999999441206455,0.0,0.0,0.0,0.0024999999441206455,0.0,0.0,0.0,0.0024999999441206455,0.0,0.0,0.0,0.019999999552965164,0.0,0.0,0.0,0.019999999552965164,0.0,0.0,0.0,0.019999999552965164,0.1646013706922531,-0.058059390634298325,9.611522674560547,0.03999999910593033,0.0,0.0,0.0,0.03999999910593033,0.0,0.0,0.0,0.03999999910593033
1779683675621254256,956466,1779683675625671091,imu_link,-0.0025207335129380226,0.006712370086461306,-0.6195144057273865,-0.7849469780921936,0.0024999999441206455,0.0,0.0,0.0,0.0024999999441206455,0.0,0.0,0.0,0.0024999999441206455,0.0,0.0,0.0,0.019999999552965164,0.0,0.0,0.0,0.019999999552965164,0.0,0.0,0.0,0.019999999552965164,0.1646013706922531,-0.058059390634298325,9.611522674560547,0.03999999910593033,0.0,0.0,0.0,0.03999999910593033,0.0,0.0,0.0,0.03999999910593033
1779683675626518788,956467,1779683675630671091,imu_link,-0.002858787076547742,0.007377370726317167,-0.6195105314254761,-0.7849430441856384,0.0024999999441206455,0.0,0.0,0.0,0.0024999999441206455,0.0,0.0,0.0,0.0024999999441206455,0.0,0.0,0.0,0.019999999552965164,0.0,0.0,0.0,0.019999999552965164,0.0,0.0,0.0,0.019999999552965164,0.17896656692028046,-0.05147533491253853,9.621698379516602,0.03999999910593033,0.0,0.0,0.0,0.03999999910593033,0.0,0.0,0.0,0.03999999910593033
1779683675650304951,956468,1779683675639671091,imu_link,-0.003811877453699708,0.008053806610405445,-0.6195012927055359,-0.7849395871162415,0.0024999999441206455,0.0,0.0,0.0,0.0024999999441206455,0.0,0.0,0.0,0.0024999999441206455,0.0,0.0,0.0,0.019999999552965164,0.0,0.0,0.0,0.019999999552965164,0.0,0.0,0.0,0.019999999552965164,0.17178396880626678,-0.03711012750864029,9.625887870788574,0.03999999910593033,0.0,0.0,0.0,0.03999999910593033,0.0,0.0,0.0,0.03999999910593033
1779683675673587079,956469,1779683675682671091,imu_link,-0.000897740013897419,0.010521939024329185,-0.6195171475410461,-0.7849066257476807,0.0024999999441206455,0.0,0.0,0.0,0.0024999999441206455,0.0,0.0,0.0,0.0024999999441206455,0.0,0.0,0.0,0.019999999552965164,0.0,0.0,0.0,0.019999999552965164,0.0,0.0,0.0,0.019999999552965164,0.16819266974925995,-0.05746084079146385,9.64564037322998,0.03999999910593033,0.0,0.0,0.0,0.03999999910593033,0.0,0.0,0.0,0.03999999910593033
1779683675677402152,956470,1779683675684671091,imu_link,-0.0014133588410913944,0.010073392651975155,-0.6195150017738342,-0.7849133610725403,0.0024999999441206455,0.0,0.0,0.0,0.0024999999441206455,0.0,0.0,0.0,0.0024999999441206455,0.0,0.0,0.0,0.019999999552965164,0.0,0.0,0.0,0.019999999552965164,0.0,0.0,0.0,0.019999999552965164,0.16639702022075653,-0.04728548228740692,9.611522674560547,0.03999999910593033,0.0,0.0,0.0,0.03999999910593033,0.0,0.0,0.0,0.03999999910593033
1779683675682961742,956471,1779683675689671091,imu_link,-0.0014133588410913944,0.010073392651975155,-0.6195150017738342,-0.7849133610725403,0.0024999999441206455,0.0,0.0,0.0,0.0024999999441206455,0.0,0.0,0.0,0.0024999999441206455,0.0,0.0,0.0,0.019999999552965164,0.0,0.0,0.0,0.019999999552965164,0.0,0.0,0.0,0.019999999552965164,0.16639702022075653,-0.04728548228740692,9.611522674560547,0.03999999910593033,0.0,0.0,0.0,0.03999999910593033,0.0,0.0,0.0,0.03999999910593033
1779683675688794291,956472,1779683675694671091,imu_link,-0.001932481536641717,0.009542791172862053,-0.6195129752159119,-0.7849204540252686,0.0024999999441206455,0.0,0.0,0.0,0.0024999999441206455,0.0,0.0,0.0,0.0024999999441206455,0.0,0.0,0.0,0.019999999552965164,0.0,0.0,0.0,0.019999999552965164,0.0,0.0,0.0,0.019999999552965164,0.1628057062625885,-0.047884032130241394,9.642048835754395,0.03999999910593033,0.0,0.0,0.0,0.03999999910593033,0.0,0.0,0.0,0.03999999910593033
1779683675694213814,956473,1779683675699671091,imu_link,-0.0021524273324757814,0.00883626937866211,-0.6195140480995178,-0.7849273681640625,0.0024999999441206455,0.0,0.0,0.0,0.0024999999441206455,0.0,0.0,0.0,0.0024999999441206455,0.0,0.0,0.0,0.019999999552965164,0.0,0.0,0.0,0.019999999552965164,0.0,0.0,0.0,0.019999999552965164,0.1538274586200714,-0.06464344263076782,9.647435188293457,0.03999999910593033,0.0,0.0,0.0,0.03999999910593033,0.0,0.0,0.0,0.03999999910593033
1779683675700163726,956474,1779683675704671091,imu_link,-0.0021524273324757814,0.00883626937866211,-0.6195140480995178,-0.7849273681640625,0.0024999999441206455,0.0,0.0,0.0,0.0024999999441206455,0.0,0.0,0.0,0.0024999999441206455,0.0,0.0,0.0,0.019999999552965164,0.0,0.0,0.0,0.019999999552965164,0.0,0.0,0.0,0.019999999552965164,0.1538274586200714,-0.06464344263076782,9.647435188293457,0.03999999910593033,0.0,0.0,0.0,0.03999999910593033,0.0,0.0,0.0,0.03999999910593033
1779683675706187757,956475,1779683675709671091,imu_link,-0.0028968302067369223,0.008845103904604912,-0.6195076704025269,-0.7849298715591431,0.0024999999441206455,0.0,0.0,0.0,0.0024999999441206455,0.0,0.0,0.0,0.0024999999441206455,0.0,0.0,0.0,0.019999999552965164,0.0,0.0,0.0,0.019999999552965164,0.0,0.0,0.0,0.019999999552965164,0.1825578808784485,-0.04429272934794426,9.635464668273926,0.03999999910593033,0.0,0.0,0.0,0.03999999910593033,0.0,0.0,0.0,0.03999999910593033
1779683675728298347,956476,1779683675718671091,imu_link,-0.003258940763771534,0.007732613477855921,-0.6195076704025269,-0.784940242767334,0.0024999999441206455,0.0,0.0,0.0,0.0024999999441206455,0.0,0.0,0.0,0.0024999999441206455,0.0,0.0,0.0,0.019999999552965164,0.0,0.0,0.0,0.019999999552965164,0.0,0.0,0.0,0.019999999552965164,0.15442600846290588,-0.040701426565647125,9.641449928283691,0.03999999910593033,0.0,0.0,0.0,0.03999999910593033,0.0,0.0,0.0,0.03999999910593033
1779683675750647117,956477,1779683675766671091,imu_link,-0.00036501436261460185,0.010941286571323872,-0.6195181608200073,-0.7849005460739136,0.0024999999441206455,0.0,0.0,0.0,0.0024999999441206455,0.0,0.0,0.0,0.0024999999441206455,0.0,0.0,0.0,0.019999999552965164,0.0,0.0,0.0,0.019999999552965164,0.0,0.0,0.0,0.019999999552965164,0.15981295704841614,-0.0652419924736023,9.643844604492188,0.03999999910593033,0.0,0.0,0.0,0.03999999910593033,0.0,0.0,0.0,0.03999999910593033
1779683675755964249,956478,1779683675768671091,imu_link,-0.0009673393797129393,0.010620051063597202,-0.6195147633552551,-0.7849070429801941,0.0024999999441206455,0.0,0.0,0.0,0.0024999999441206455,0.0,0.0,0.0,0.0024999999441206455,0.0,0.0,0.0,0.019999999552965164,0.0,0.0,0.0,0.019999999552965164,0.0,0.0,0.0,0.019999999552965164,0.18136078119277954,-0.05746084079146385,9.5995512008667,0.03999999910593033,0.0,0.0,0.0,0.03999999910593033,0.0,0.0,0.0,0.03999999910593033
1779683675761603230,956479,1779683675773671091,imu_link,-0.0009673393797129393,0.010620051063597202,-0.6195147633552551,-0.7849070429801941,0.0024999999441206455,0.0,0.0,0.0,0.0024999999441206455,0.0,0.0,0.0,0.0024999999441206455,0.0,0.0,0.0,0.019999999552965164,0.0,0.0,0.0,0.019999999552965164,0.0,0.0,0.0,0.019999999552965164,0.18136078119277954,-0.05746084079146385,9.5995512008667,0.03999999910593033,0.0,0.0,0.0,0.03999999910593033,0.0,0.0,0.0,0.03999999910593033
1779683675766840293,956480,1779683675778671091,imu_link,-0.0015158640453591943,0.010120359249413013,-0.6195126175880432,-0.784914493560791,0.0024999999441206455,0.0,0.0,0.0,0.0024999999441206455,0.0,0.0,0.0,0.0024999999441206455,0.0,0.0,0.0,0.019999999552965164,0.0,0.0,0.0,0.019999999552965164,0.0,0.0,0.0,0.019999999552965164,0.16879121959209442,-0.05985504016280174,9.651625633239746,0.03999999910593033,0.0,0.0,0.0,0.03999999910593033,0.0,0.0,0.0,0.03999999910593033
1779683675772448455,956481,1779683675783671091,imu_link,-0.0021865512244403362,0.009807303547859192,-0.6195080876350403,-0.7849204540252686,0.0024999999441206455,0.0,0.0,0.0,0.0024999999441206455,0.0,0.0,0.0,0.0024999999441206455,0.0,0.0,0.0,0.019999999552965164,0.0,0.0,0.0,0.019999999552965164,0.0,0.0,0.0,0.019999999552965164,0.18375498056411743,-0.04668693244457245,9.658807754516602,0.03999999910593033,0.0,0.0,0.0,0.03999999910593033,0.0,0.0,0.0,0.03999999910593033
1779683675778001607,956482,1779683675788671091,imu_link,-0.0021865512244403362,0.009807303547859192,-0.6195080876350403,-0.7849204540252686,0.0024999999441206455,0.0,0.0,0.0,0.0024999999441206455,0.0,0.0,0.0,0.0024999999441206455,0.0,0.0,0.0,0.019999999552965164,0.0,0.0,0.0,0.019999999552965164,0.0,0.0,0.0,0.019999999552965164,0.18375498056411743,-0.04668693244457245,9.658807754516602,0.03999999910593033,0.0,0.0,0.0,0.03999999910593033,0.0,0.0,0.0,0.03999999910593033
1779683675784125564,956483,1779683675793671091,imu_link,-0.002400008263066411,0.009094104170799255,-0.6195091605186462,-0.7849277257919312,0.0024999999441206455,0.0,0.0,0.0,0.0024999999441206455,0.0,0.0,0.0,0.0024999999441206455,0.0,0.0,0.0,0.019999999552965164,0.0,0.0,0.0,0.019999999552965164,0.0,0.0,0.0,0.019999999552965164,0.14903905987739563,-0.04728548228740692,9.663596153259277,0.03999999910593033,0.0,0.0,0.0,0.03999999910593033,0.0,0.0,0.0,0.03999999910593033
1779683675806574059,956484,1779683675802671091,imu_link,-0.0023462274111807346,0.01026159431785345,-0.6195047497749329,-0.784916877746582,0.0024999999441206455,0.0,0.0,0.0,0.0024999999441206455,0.0,0.0,0.0,0.0024999999441206455,0.0,0.0,0.0,0.019999999552965164,0.0,0.0,0.0,0.019999999552965164,0.0,0.0,0.0,0.019999999552965164,0.16819266974925995,-0.07422025501728058,9.601945877075195,0.03999999910593033,0.0,0.0,0.0,0.03999999910593033,0.0,0.0,0.0,0.03999999910593033
1779683675812053625,956485,1779683675807671091,imu_link,-0.0023462274111807346,0.01026159431785345,-0.6195047497749329,-0.784916877746582,0.0024999999441206455,0.0,0.0,0.0,0.0024999999441206455,0.0,0.0,0.0,0.0024999999441206455,0.0,0.0,0.0,0.019999999552965164,0.0,0.0,0.0,0.019999999552965164,0.0,0.0,0.0,0.019999999552965164,0.16819266974925995,-0.07422025501728058,9.601945877075195,0.03999999910593033,0.0,0.0,0.0,0.03999999910593033,0.0,0.0,0.0,0.03999999910593033
1779683675836613718,956486,1779683675850671091,imu_link,-0.001981888199225068,0.005956416483968496,-0.6195219159126282,-0.7849488854408264,0.0024999999441206455,0.0,0.0,0.0,0.0024999999441206455,0.0,0.0,0.0,0.0024999999441206455,0.0,0.0,0.0,0.019999999552965164,0.0,0.0,0.0,0.019999999552965164,0.0,0.0,0.0,0.019999999552965164,0.14844051003456116,-0.06404489278793335,9.632472038269043,0.03999999910593033,0.0,0.0,0.0,0.03999999910593033,0.0,0.0,0.0,0.03999999910593033
