%time,field.header.seq,field.header.stamp,field.header.frame_id,field.orientation.x,field.orientation.y,field.orientation.z,field.orientation.w,field.orientation_covariance0,field.orientation_covariance1,field.orientation_covariance2,field.orientation_covariance3,field.orientation_covariance4,field.orientation_covariance5,field.orientation_covariance6,field.orientation_covariance7,field.orientation_covariance8,field.angular_velocity.x,field.angular_velocity.y,field.angular_velocity.z,field.angular_velocity_covariance0,field.angular_velocity_covariance1,field.angular_velocity_covariance2,field.angular_velocity_covariance3,field.angular_velocity_covariance4,field.angular_velocity_covariance5,field.angular_velocity_covariance6,field.angular_velocity_covariance7,field.angular_velocity_covariance8,field.linear_acceleration.x,field.linear_acceleration.y,field.linear_acceleration.z,field.linear_acceleration_covariance0,field.linear_acceleration_covariance1,field.linear_acceleration_covariance2,field.linear_acceleration_covariance3,field.linear_acceleration_covariance4,field.linear_acceleration_covariance5,field.linear_acceleration_covariance6,field.linear_acceleration_covariance7,field.linear_acceleration_covariance8
1778815186366275563,265986,1778815186344148056,imu_link,0.012997845187783241,-0.008291411213576794,-0.5965839624404907,0.8023973107337952,0.0024999999441206455,0.0,0.0,0.0,0.0024999999441206455,0.0,0.0,0.0,0.0024999999441206455,0.0,0.0,0.0,0.019999999552965164,0.0,0.0,0.0,0.019999999552965164,0.0,0.0,0.0,0.019999999552965164,-0.06643909960985184,0.2926911413669586,9.763554573059082,0.03999999910593033,0.0,0.0,0.0,0.03999999910593033,0.0,0.0,0.0,0.03999999910593033
1778815186374090592,265987,1778815186349148056,imu_link,0.013639403507113457,-0.00791461393237114,-0.5965888500213623,0.8023867607116699,0.0024999999441206455,0.0,0.0,0.0,0.0024999999441206455,0.0,0.0,0.0,0.0024999999441206455,0.0,0.0,0.0,0.019999999552965164,0.0,0.0,0.0,0.019999999552965164,0.0,0.0,0.0,0.019999999552965164,-0.06703764945268631,0.32022446393966675,9.782109260559082,0.03999999910593033,0.0,0.0,0.0,0.03999999910593033,0.0,0.0,0.0,0.03999999910593033
1778815186379386503,265988,1778815186354148056,imu_link,0.013894000090658665,-0.0072203222662210464,-0.5965990424156189,0.8023812770843506,0.0024999999441206455,0.0,0.0,0.0,0.0024999999441206455,0.0,0.0,0.0,0.0024999999441206455,0.0,0.0,0.0,0.019999999552965164,0.0,0.0,0.0,0.019999999552965164,0.0,0.0,0.0,0.019999999552965164,-0.06165069341659546,0.2974795699119568,9.743204116821289,0.03999999910593033,0.0,0.0,0.0,0.03999999910593033,0.0,0.0,0.0,0.03999999910593033
1778815186384719215,265989,1778815186359148056,imu_link,0.013894000090658665,-0.0072203222662210464,-0.5965990424156189,0.8023812770843506,0.0024999999441206455,0.0,0.0,0.0,0.0024999999441206455,0.0,0.0,0.0,0.0024999999441206455,0.0,0.0,0.0,0.019999999552965164,0.0,0.0,0.0,0.019999999552965164,0.0,0.0,0.0,0.019999999552965164,-0.06165069341659546,0.2974795699119568,9.743204116821289,0.03999999910593033,0.0,0.0,0.0,0.03999999910593033,0.0,0.0,0.0,0.03999999910593033
1778815186390985857,265990,1778815186364148056,imu_link,0.01440352201461792,-0.006676703691482544,-0.5966060161590576,0.8023718595504761,0.0024999999441206455,0.0,0.0,0.0,0.0024999999441206455,0.0,0.0,0.0,0.0024999999441206455,0.0,0.0,0.0,0.019999999552965164,0.0,0.0,0.0,0.019999999552965164,0.0,0.0,0.0,0.019999999552965164,-0.08559270948171616,0.3058592677116394,9.753378868103027,0.03999999910593033,0.0,0.0,0.0,0.03999999910593033,0.0,0.0,0.0,0.03999999910593033
1778815186416573787,265991,1778815186373148056,imu_link,0.01557045616209507,-0.006584736052900553,-0.596603274345398,0.8023529052734375,0.0024999999441206455,0.0,0.0,0.0,0.0024999999441206455,0.0,0.0,0.0,0.0024999999441206455,0.0,0.0,0.0,0.019999999552965164,0.0,0.0,0.0,0.019999999552965164,0.0,0.0,0.0,0.019999999552965164,-0.07362169772386551,0.31543606519699097,9.759963035583496,0.03999999910593033,0.0,0.0,0.0,0.03999999910593033,0.0,0.0,0.0,0.03999999910593033
1778815186422563053,265992,1778815186378148056,imu_link,0.01557045616209507,-0.006584736052900553,-0.596603274345398,0.8023529052734375,0.0024999999441206455,0.0,0.0,0.0,0.0024999999441206455,0.0,0.0,0.0,0.0024999999441206455,0.0,0.0,0.0,0.019999999552965164,0.0,0.0,0.0,0.019999999552965164,0.0,0.0,0.0,0.019999999552965164,-0.07362169772386551,0.31543606519699097,9.759963035583496,0.03999999910593033,0.0,0.0,0.0,0.03999999910593033,0.0,0.0,0.0,0.03999999910593033
1778815186445475025,265993,1778815186429148056,imu_link,0.010791775770485401,-0.004784322343766689,-0.5966442227363586,0.8024137616157532,0.0024999999441206455,0.0,0.0,0.0,0.0024999999441206455,0.0,0.0,0.0,0.0024999999441206455,0.0,0.0,0.0,0.019999999552965164,0.0,0.0,0.0,0.019999999552965164,0.0,0.0,0.0,0.019999999552965164,-0.07242459803819656,0.30047231912612915,9.770736694335938,0.03999999910593033,0.0,0.0,0.0,0.03999999910593033,0.0,0.0,0.0,0.03999999910593033
1778815186451315277,265994,1778815186431148056,imu_link,0.011451209895312786,-0.004972836468368769,-0.5966401696205139,0.8024064898490906,0.0024999999441206455,0.0,0.0,0.0,0.0024999999441206455,0.0,0.0,0.0,0.0024999999441206455,0.0,0.0,0.0,0.019999999552965164,0.0,0.0,0.0,0.019999999552965164,0.0,0.0,0.0,0.019999999552965164,-0.0802057534456253,0.30286651849746704,9.764152526855469,0.03999999910593033,0.0,0.0,0.0,0.03999999910593033,0.0,0.0,0.0,0.03999999910593033
1778815186457025411,265995,1778815186436148056,imu_link,0.011451209895312786,-0.004972836468368769,-0.5966401696205139,0.8024064898490906,0.0024999999441206455,0.0,0.0,0.0,0.0024999999441206455,0.0,0.0,0.0,0.0024999999441206455,0.0,0.0,0.0,0.019999999552965164,0.0,0.0,0.0,0.019999999552965164,0.0,0.0,0.0,0.019999999552965164,-0.0802057534456253,0.30286651849746704,9.764152526855469,0.03999999910593033,0.0,0.0,0.0,0.03999999910593033,0.0,0.0,0.0,0.03999999910593033
1778815186464810408,265996,1778815186441148056,imu_link,0.012075806967914104,-0.005380929913371801,-0.59663325548172,0.8023998141288757,0.0024999999441206455,0.0,0.0,0.0,0.0024999999441206455,0.0,0.0,0.0,0.0024999999441206455,0.0,0.0,0.0,0.019999999552965164,0.0,0.0,0.0,0.019999999552965164,0.0,0.0,0.0,0.019999999552965164,-0.05985504016280174,0.30885201692581177,9.764152526855469,0.03999999910593033,0.0,0.0,0.0,0.03999999910593033,0.0,0.0,0.0,0.03999999910593033
1778815186470386324,265997,1778815186446148056,imu_link,0.012723421677947044,-0.0057395100593566895,-0.5966265797615051,0.802392303943634,0.0024999999441206455,0.0,0.0,0.0,0.0024999999441206455,0.0,0.0,0.0,0.0024999999441206455,0.0,0.0,0.0,0.019999999552965164,0.0,0.0,0.0,0.019999999552965164,0.0,0.0,0.0,0.019999999552965164,-0.06703764945268631,0.33099839091300964,9.768342971801758,0.03999999910593033,0.0,0.0,0.0,0.03999999910593033,0.0,0.0,0.0,0.03999999910593033
1778815186476464006,265998,1778815186451148056,imu_link,0.012723421677947044,-0.0057395100593566895,-0.5966265797615051,0.802392303943634,0.0024999999441206455,0.0,0.0,0.0,0.0024999999441206455,0.0,0.0,0.0,0.0024999999441206455,0.0,0.0,0.0,0.019999999552965164,0.0,0.0,0.0,0.019999999552965164,0.0,0.0,0.0,0.019999999552965164,-0.06703764945268631,0.33099839091300964,9.768342971801758,0.03999999910593033,0.0,0.0,0.0,0.03999999910593033,0.0,0.0,0.0,0.03999999910593033
1778815186482135902,265999,1778815186456148056,imu_link,0.01345732994377613,-0.005624224431812763,-0.5966257452964783,0.802381694316864,0.0024999999441206455,0.0,0.0,0.0,0.0024999999441206455,0.0,0.0,0.0,0.0024999999441206455,0.0,0.0,0.0,0.019999999552965164,0.0,0.0,0.0,0.019999999552965164,0.0,0.0,0.0,0.019999999552965164,-0.08439560979604721,0.29209259152412415,9.77253246307373,0.03999999910593033,0.0,0.0,0.0,0.03999999910593033,0.0,0.0,0.0,0.03999999910593033
1778815186506560046,266000,1778815186465148056,imu_link,0.014565297402441502,-0.006006084848195314,-0.5966160893440247,0.8023669123649597,0.0024999999441206455,0.0,0.0,0.0,0.0024999999441206455,0.0,0.0,0.0,0.0024999999441206455,0.0,0.0,0.0,0.019999999552965164,0.0,0.0,0.0,0.019999999552965164,0.0,0.0,0.0,0.019999999552965164,-0.08319851011037827,0.32202011346817017,9.73661994934082,0.03999999910593033,0.0,0.0,0.0,0.03999999910593033,0.0,0.0,0.0,0.03999999910593033
1778815186530654608,266001,1778815186515148056,imu_link,0.017987599596381187,-0.00893851462751627,-0.5965518951416016,0.8023176789283752,0.0024999999441206455,0.0,0.0,0.0,0.0024999999441206455,0.0,0.0,0.0,0.0024999999441206455,0.0,0.0,0.0,0.019999999552965164,0.0,0.0,0.0,0.019999999552965164,0.0,0.0,0.0,0.019999999552965164,-0.07362169772386551,0.3232172131538391,9.734824180603027,0.03999999910593033,0.0,0.0,0.0,0.03999999910593033,0.0,0.0,0.0,0.03999999910593033
1778815186536653689,266002,1778815186517148056,imu_link,0.01762799732387066,-0.008352933451533318,-0.596564531326294,0.8023224472999573,0.0024999999441206455,0.0,0.0,0.0,0.0024999999441206455,0.0,0.0,0.0,0.0024999999441206455,0.0,0.0,0.0,0.019999999552965164,0.0,0.0,0.0,0.019999999552965164,0.0,0.0,0.0,0.019999999552965164,-0.0933738648891449,0.32680851221084595,9.765948295593262,0.03999999910593033,0.0,0.0,0.0,0.03999999910593033,0.0,0.0,0.0,0.03999999910593033
1778815186543108809,266003,1778815186522148056,imu_link,0.01762799732387066,-0.008352933451533318,-0.596564531326294,0.8023224472999573,0.0024999999441206455,0.0,0.0,0.0,0.0024999999441206455,0.0,0.0,0.0,0.0024999999441206455,0.0,0.0,0.0,0.019999999552965164,0.0,0.0,0.0,0.019999999552965164,0.0,0.0,0.0,0.019999999552965164,-0.0933738648891449,0.32680851221084595,9.765948295593262,0.03999999910593033,0.0,0.0,0.0,0.03999999910593033,0.0,0.0,0.0,0.03999999910593033
1778815186548840768,266004,1778815186527148056,imu_link,0.01702456921339035,-0.007912383414804935,-0.596575140953064,0.8023322224617004,0.0024999999441206455,0.0,0.0,0.0,0.0024999999441206455,0.0,0.0,0.0,0.0024999999441206455,0.0,0.0,0.0,0.019999999552965164,0.0,0.0,0.0,0.019999999552965164,0.0,0.0,0.0,0.019999999552965164,-0.07422025501728058,0.33099839091300964,9.77133560180664,0.03999999910593033,0.0,0.0,0.0,0.03999999910593033,0.0,0.0,0.0,0.03999999910593033
1778815186554478253,266005,1778815186532148056,imu_link,0.016656214371323586,-0.007271107751876116,-0.5965882539749146,0.8023363947868347,0.0024999999441206455,0.0,0.0,0.0,0.0024999999441206455,0.0,0.0,0.0,0.0024999999441206455,0.0,0.0,0.0,0.019999999552965164,0.0,0.0,0.0,0.019999999552965164,0.0,0.0,0.0,0.019999999552965164,-0.09217676520347595,0.31783026456832886,9.755773544311523,0.03999999910593033,0.0,0.0,0.0,0.03999999910593033,0.0,0.0,0.0,0.03999999910593033
1778815186561741235,266006,1778815186537148056,imu_link,0.016656214371323586,-0.007271107751876116,-0.5965882539749146,0.8023363947868347,0.0024999999441206455,0.0,0.0,0.0,0.0024999999441206455,0.0,0.0,0.0,0.0024999999441206455,0.0,0.0,0.0,0.019999999552965164,0.0,0.0,0.0,0.019999999552965164,0.0,0.0,0.0,0.019999999552965164,-0.09217676520347595,0.31783026456832886,9.755773544311523,0.03999999910593033,0.0,0.0,0.0,0.03999999910593033,0.0,0.0,0.0,0.03999999910593033
1778815186569650873,266007,1778815186542148056,imu_link,0.01592642068862915,-0.0071330503560602665,-0.59659343957901,0.8023483753204346,0.0024999999441206455,0.0,0.0,0.0,0.0024999999441206455,0.0,0.0,0.0,0.0024999999441206455,0.0,0.0,0.0,0.019999999552965164,0.0,0.0,0.0,0.019999999552965164,0.0,0.0,0.0,0.019999999552965164,-0.07302314788103104,0.33099839091300964,9.75397777557373,0.03999999910593033,0.0,0.0,0.0,0.03999999910593033,0.0,0.0,0.0,0.03999999910593033
1778815186592724177,266008,1778815186551148056,imu_link,0.015482834540307522,-0.006048466544598341,-0.5966132283210754,0.8023513555526733,0.0024999999441206455,0.0,0.0,0.0,0.0024999999441206455,0.0,0.0,0.0,0.0024999999441206455,0.0,0.0,0.0,0.019999999552965164,0.0,0.0,0.0,0.019999999552965164,0.0,0.0,0.0,0.019999999552965164,-0.08439560979604721,0.3148375153541565,9.753378868103027,0.03999999910593033,0.0,0.0,0.0,0.03999999910593033,0.0,0.0,0.0,0.03999999910593033
1778815186616351979,266009,1778815186605148056,imu_link,0.010601036250591278,-0.0065269460901618,-0.596619725227356,0.802422046661377,0.0024999999441206455,0.0,0.0,0.0,0.0024999999441206455,0.0,0.0,0.0,0.0024999999441206455,0.0,0.0,0.0,0.019999999552965164,0.0,0.0,0.0,0.019999999552965164,0.0,0.0,0.0,0.019999999552965164,-0.06823474913835526,0.2932896912097931,9.731232643127441,0.03999999910593033,0.0,0.0,0.0,0.03999999910593033,0.0,0.0,0.0,0.03999999910593033
1778815186622120376,266010,1778815186607148056,imu_link,0.011286764405667782,-0.006605906877666712,-0.5966179370880127,0.8024135231971741,0.0024999999441206455,0.0,0.0,0.0,0.0024999999441206455,0.0,0.0,0.0,0.0024999999441206455,0.0,0.0,0.0,0.019999999552965164,0.0,0.0,0.0,0.019999999552965164,0.0,0.0,0.0,0.019999999552965164,-0.0628477931022644,0.314238965511322,9.768940925598145,0.03999999910593033,0.0,0.0,0.0,0.03999999910593033,0.0,0.0,0.0,0.03999999910593033
1778815186628651597,266011,1778815186612148056,imu_link,0.011286764405667782,-0.006605906877666712,-0.5966179370880127,0.8024135231971741,0.0024999999441206455,0.0,0.0,0.0,0.0024999999441206455,0.0,0.0,0.0,0.0024999999441206455,0.0,0.0,0.0,0.019999999552965164,0.0,0.0,0.0,0.019999999552965164,0.0,0.0,0.0,0.019999999552965164,-0.0628477931022644,0.314238965511322,9.768940925598145,0.03999999910593033,0.0,0.0,0.0,0.03999999910593033,0.0,0.0,0.0,0.03999999910593033
1778815186635075179,266012,1778815186617148056,imu_link,0.01203197706490755,-0.006654818542301655,-0.5966160893440247,0.8024037480354309,0.0024999999441206455,0.0,0.0,0.0,0.0024999999441206455,0.0,0.0,0.0,0.0024999999441206455,0.0,0.0,0.0,0.019999999552965164,0.0,0.0,0.0,0.019999999552965164,0.0,0.0,0.0,0.019999999552965164,-0.07362169772386551,0.3232172131538391,9.703699111938477,0.03999999910593033,0.0,0.0,0.0,0.03999999910593033,0.0,0.0,0.0,0.03999999910593033
1778815186640925835,266013,1778815186622148056,imu_link,0.012714434415102005,-0.006942292675375938,-0.5966107249259949,0.802394688129425,0.0024999999441206455,0.0,0.0,0.0,0.0024999999441206455,0.0,0.0,0.0,0.0024999999441206455,0.0,0.0,0.0,0.019999999552965164,0.0,0.0,0.0,0.019999999552965164,0.0,0.0,0.0,0.019999999552965164,-0.04848258197307587,0.3172317147254944,9.75278091430664,0.03999999910593033,0.0,0.0,0.0,0.03999999910593033,0.0,0.0,0.0,0.03999999910593033
1778815186646272981,266014,1778815186627148056,imu_link,0.012714434415102005,-0.006942292675375938,-0.5966107249259949,0.802394688129425,0.0024999999441206455,0.0,0.0,0.0,0.0024999999441206455,0.0,0.0,0.0,0.0024999999441206455,0.0,0.0,0.0,0.019999999552965164,0.0,0.0,0.0,0.019999999552965164,0.0,0.0,0.0,0.019999999552965164,-0.04848258197307587,0.3172317147254944,9.75278091430664,0.03999999910593033,0.0,0.0,0.0,0.03999999910593033,0.0,0.0,0.0,0.03999999910593033
1778815186652612876,266015,1778815186632148056,imu_link,0.01339798141270876,-0.006651349365711212,-0.596613347530365,0.802384078502655,0.0024999999441206455,0.0,0.0,0.0,0.0024999999441206455,0.0,0.0,0.0,0.0024999999441206455,0.0,0.0,0.0,0.019999999552965164,0.0,0.0,0.0,0.019999999552965164,0.0,0.0,0.0,0.019999999552965164,-0.08499415963888168,0.3064578175544739,9.746794700622559,0.03999999910593033,0.0,0.0,0.0,0.03999999910593033,0.0,0.0,0.0,0.03999999910593033
1778815186677648240,266016,1778815186641148056,imu_link,0.01448688842356205,-0.00621738051995635,-0.5966163873672485,0.802366316318512,0.0024999999441206455,0.0,0.0,0.0,0.0024999999441206455,0.0,0.0,0.0,0.0024999999441206455,0.0,0.0,0.0,0.019999999552965164,0.0,0.0,0.0,0.019999999552965164,0.0,0.0,0.0,0.019999999552965164,-0.08978256583213806,0.3100491166114807,9.731232643127441,0.03999999910593033,0.0,0.0,0.0,0.03999999910593033,0.0,0.0,0.0,0.03999999910593033
1778815186701822115,266017,1778815186690148056,imu_link,0.011306056752800941,-0.0031680059619247913,-0.5966690182685852,0.8023961782455444,0.0024999999441206455,0.0,0.0,0.0,0.0024999999441206455,0.0,0.0,0.0,0.0024999999441206455,0.0,0.0,0.0,0.019999999552965164,0.0,0.0,0.0,0.019999999552965164,0.0,0.0,0.0,0.019999999552965164,-0.07302314788103104,0.2867056429386139,9.764751434326172,0.03999999910593033,0.0,0.0,0.0,0.03999999910593033,0.0,0.0,0.0,0.03999999910593033
1778815186709755014,266018,1778815186692148056,imu_link,0.011815504170954227,-0.0036324639804661274,-0.5966616868972778,0.8023924231529236,0.0024999999441206455,0.0,0.0,0.0,0.0024999999441206455,0.0,0.0,0.0,0.0024999999441206455,0.0,0.0,0.0,0.019999999552965164,0.0,0.0,0.0,0.019999999552965164,0.0,0.0,0.0,0.019999999552965164,-0.07362169772386551,0.29867666959762573,9.7605619430542,0.03999999910593033,0.0,0.0,0.0,0.03999999910593033,0.0,0.0,0.0,0.03999999910593033
1778815186715521362,266019,1778815186697148056,imu_link,0.011815504170954227,-0.0036324639804661274,-0.5966616868972778,0.8023924231529236,0.0024999999441206455,0.0,0.0,0.0,0.0024999999441206455,0.0,0.0,0.0,0.0024999999441206455,0.0,0.0,0.0,0.019999999552965164,0.0,0.0,0.0,0.019999999552965164,0.0,0.0,0.0,0.019999999552965164,-0.07362169772386551,0.29867666959762573,9.7605619430542,0.03999999910593033,0.0,0.0,0.0,0.03999999910593033,0.0,0.0,0.0,0.03999999910593033
1778815186721615591,266020,1778815186702148056,imu_link,0.01230682898312807,-0.0041953581385314465,-0.5966529250144958,0.8023887872695923,0.0024999999441206455,0.0,0.0,0.0,0.0024999999441206455,0.0,0.0,0.0,0.0024999999441206455,0.0,0.0,0.0,0.019999999552965164,0.0,0.0,0.0,0.019999999552965164,0.0,0.0,0.0,0.019999999552965164,-0.061052143573760986,0.31783026456832886,9.75397777557373,0.03999999910593033,0.0,0.0,0.0,0.03999999910593033,0.0,0.0,0.0,0.03999999910593033
1778815186728770256,266021,1778815186707148056,imu_link,0.012663625180721283,-0.00454465439543128,-0.5966470837593079,0.8023856282234192,0.0024999999441206455,0.0,0.0,0.0,0.0024999999441206455,0.0,0.0,0.0,0.0024999999441206455,0.0,0.0,0.0,0.019999999552965164,0.0,0.0,0.0,0.019999999552965164,0.0,0.0,0.0,0.019999999552965164,-0.07062894850969315,0.2914940416812897,9.738415718078613,0.03999999910593033,0.0,0.0,0.0,0.03999999910593033,0.0,0.0,0.0,0.03999999910593033
1778815186736061288,266022,1778815186712148056,imu_link,0.013122748583555222,-0.005125544499605894,-0.5966376662254333,0.8023818135261536,0.0024999999441206455,0.0,0.0,0.0,0.0024999999441206455,0.0,0.0,0.0,0.0024999999441206455,0.0,0.0,0.0,0.019999999552965164,0.0,0.0,0.0,0.019999999552965164,0.0,0.0,0.0,0.019999999552965164,-0.05506663769483566,0.3315969407558441,9.7791166305542,0.03999999910593033,0.0,0.0,0.0,0.03999999910593033,0.0,0.0,0.0,0.03999999910593033
1778815186741760303,266023,1778815186717148056,imu_link,0.013122748583555222,-0.005125544499605894,-0.5966376662254333,0.8023818135261536,0.0024999999441206455,0.0,0.0,0.0,0.0024999999441206455,0.0,0.0,0.0,0.0024999999441206455,0.0,0.0,0.0,0.019999999552965164,0.0,0.0,0.0,0.019999999552965164,0.0,0.0,0.0,0.019999999552965164,-0.05506663769483566,0.3315969407558441,9.7791166305542,0.03999999910593033,0.0,0.0,0.0,0.03999999910593033,0.0,0.0,0.0,0.03999999910593033
1778815186766195529,266024,1778815186726148056,imu_link,0.014395986683666706,-0.005678796209394932,-0.5966249704360962,0.8023656010627747,0.0024999999441206455,0.0,0.0,0.0,0.0024999999441206455,0.0,0.0,0.0,0.0024999999441206455,0.0,0.0,0.0,0.019999999552965164,0.0,0.0,0.0,0.019999999552965164,0.0,0.0,0.0,0.019999999552965164,-0.08978256583213806,0.314238965511322,9.77013874053955,0.03999999910593033,0.0,0.0,0.0,0.03999999910593033,0.0,0.0,0.0,0.03999999910593033
1778815186771862604,266025,1778815186731148056,imu_link,0.014395986683666706,-0.005678796209394932,-0.5966249704360962,0.8023656010627747,0.0024999999441206455,0.0,0.0,0.0,0.0024999999441206455,0.0,0.0,0.0,0.0024999999441206455,0.0,0.0,0.0,0.019999999552965164,0.0,0.0,0.0,0.019999999552965164,0.0,0.0,0.0,0.019999999552965164,-0.08978256583213806,0.314238965511322,9.77013874053955,0.03999999910593033,0.0,0.0,0.0,0.03999999910593033,0.0,0.0,0.0,0.03999999910593033
1778815186793057173,266026,1778815186780148056,imu_link,0.014478230848908424,-0.010576148517429829,-0.5965443253517151,0.8023744821548462,0.0024999999441206455,0.0,0.0,0.0,0.0024999999441206455,0.0,0.0,0.0,0.0024999999441206455,0.0,0.0,0.0,0.019999999552965164,0.0,0.0,0.0,0.019999999552965164,0.0,0.0,0.0,0.019999999552965164,-0.053270988166332245,0.31124621629714966,9.75637149810791,0.03999999910593033,0.0,0.0,0.0,0.03999999910593033,0.0,0.0,0.0,0.03999999910593033
1778815186800853717,266027,1778815186782148056,imu_link,0.014693556353449821,-0.00991992186754942,-0.5965558886528015,0.8023703098297119,0.0024999999441206455,0.0,0.0,0.0,0.0024999999441206455,0.0,0.0,0.0,0.0024999999441206455,0.0,0.0,0.0,0.019999999552965164,0.0,0.0,0.0,0.019999999552965164,0.0,0.0,0.0,0.019999999552965164,-0.0628477931022644,0.3292027413845062,9.734225273132324,0.03999999910593033,0.0,0.0,0.0,0.03999999910593033,0.0,0.0,0.0,0.03999999910593033
1778815186806096502,266028,1778815186787148056,imu_link,0.014693556353449821,-0.00991992186754942,-0.5965558886528015,0.8023703098297119,0.0024999999441206455,0.0,0.0,0.0,0.0024999999441206455,0.0,0.0,0.0,0.0024999999441206455,0.0,0.0,0.0,0.019999999552965164,0.0,0.0,0.0,0.019999999552965164,0.0,0.0,0.0,0.019999999552965164,-0.0628477931022644,0.3292027413845062,9.734225273132324,0.03999999910593033,0.0,0.0,0.0,0.03999999910593033,0.0,0.0,0.0,0.03999999910593033
1778815186811364524,266029,1778815186792148056,imu_link,0.014706987887620926,-0.009173489175736904,-0.5965689420700073,0.8023692965507507,0.0024999999441206455,0.0,0.0,0.0,0.0024999999441206455,0.0,0.0,0.0,0.0024999999441206455,0.0,0.0,0.0,0.019999999552965164,0.0,0.0,0.0,0.019999999552965164,0.0,0.0,0.0,0.019999999552965164,-0.06703764945268631,0.30945056676864624,9.768940925598145,0.03999999910593033,0.0,0.0,0.0,0.03999999910593033,0.0,0.0,0.0,0.03999999910593033
1778815186817466425,266030,1778815186797148056,imu_link,0.014664613641798496,-0.008433949202299118,-0.5965816378593445,0.8023687601089478,0.0024999999441206455,0.0,0.0,0.0,0.0024999999441206455,0.0,0.0,0.0,0.0024999999441206455,0.0,0.0,0.0,0.019999999552965164,0.0,0.0,0.0,0.019999999552965164,0.0,0.0,0.0,0.019999999552965164,-0.07781155407428741,0.2950853407382965,9.75278091430664,0.03999999910593033,0.0,0.0,0.0,0.03999999910593033,0.0,0.0,0.0,0.03999999910593033
1778815186822887843,266031,1778815186802148056,imu_link,0.014664613641798496,-0.008433949202299118,-0.5965816378593445,0.8023687601089478,0.0024999999441206455,0.0,0.0,0.0,0.0024999999441206455,0.0,0.0,0.0,0.0024999999441206455,0.0,0.0,0.0,0.019999999552965164,0.0,0.0,0.0,0.019999999552965164,0.0,0.0,0.0,0.019999999552965164,-0.07781155407428741,0.2950853407382965,9.75278091430664,0.03999999910593033,0.0,0.0,0.0,0.03999999910593033,0.0,0.0,0.0,0.03999999910593033
1778815186832121574,266032,1778815186807148056,imu_link,0.015127541497349739,-0.00785230752080679,-0.5965902805328369,0.8023595809936523,0.0024999999441206455,0.0,0.0,0.0,0.0024999999441206455,0.0,0.0,0.0,0.0024999999441206455,0.0,0.0,0.0,0.019999999552965164,0.0,0.0,0.0,0.019999999552965164,0.0,0.0,0.0,0.019999999552965164,-0.06883329898118973,0.33039984107017517,9.799467086791992,0.03999999910593033,0.0,0.0,0.0,0.03999999910593033,0.0,0.0,0.0,0.03999999910593033
1778815186853687530,266033,1778815186816148056,imu_link,0.01528072264045477,-0.006689585745334625,-0.5966090559959412,0.8023533225059509,0.0024999999441206455,0.0,0.0,0.0,0.0024999999441206455,0.0,0.0,0.0,0.0024999999441206455,0.0,0.0,0.0,0.019999999552965164,0.0,0.0,0.0,0.019999999552965164,0.0,0.0,0.0,0.019999999552965164,-0.09217676520347595,0.3076549172401428,9.782109260559082,0.03999999910593033,0.0,0.0,0.0,0.03999999910593033,0.0,0.0,0.0,0.03999999910593033
1778815186877133654,266034,1778815186862148056,imu_link,0.01118377223610878,-0.006446828134357929,-0.5966233015060425,0.8024122714996338,0.0024999999441206455,0.0,0.0,0.0,0.0024999999441206455,0.0,0.0,0.0,0.0024999999441206455,0.0,0.0,0.0,0.019999999552965164,0.0,0.0,0.0,0.019999999552965164,0.0,0.0,0.0,0.019999999552965164,-0.06703764945268631,0.3082534670829773,9.77372932434082,0.03999999910593033,0.0,0.0,0.0,0.03999999910593033,0.0,0.0,0.0,0.03999999910593033
1778815186882408240,266035,1778815186864148056,imu_link,0.011807630769908428,-0.0067427800968289375,-0.5966184139251709,0.8024044632911682,0.0024999999441206455,0.0,0.0,0.0,0.0024999999441206455,0.0,0.0,0.0,0.0024999999441206455,0.0,0.0,0.0,0.019999999552965164,0.0,0.0,0.0,0.019999999552965164,0.0,0.0,0.0,0.019999999552965164,-0.043095629662275314,0.3196259140968323,9.744998931884766,0.03999999910593033,0.0,0.0,0.0,0.03999999910593033,0.0,0.0,0.0,0.03999999910593033
1778815186888992431,266036,1778815186869148056,imu_link,0.011807630769908428,-0.0067427800968289375,-0.5966184139251709,0.8024044632911682,0.0024999999441206455,0.0,0.0,0.0,0.0024999999441206455,0.0,0.0,0.0,0.0024999999441206455,0.0,0.0,0.0,0.019999999552965164,0.0,0.0,0.0,0.019999999552965164,0.0,0.0,0.0,0.019999999552965164,-0.043095629662275314,0.3196259140968323,9.744998931884766,0.03999999910593033,0.0,0.0,0.0,0.03999999910593033,0.0,0.0,0.0,0.03999999910593033
1778815186896567103,266037,1778815186874148056,imu_link,0.012493634596467018,-0.006449874024838209,-0.5966210961341858,0.802394449710846,0.0024999999441206455,0.0,0.0,0.0,0.0024999999441206455,0.0,0.0,0.0,0.0024999999441206455,0.0,0.0,0.0,0.019999999552965164,0.0,0.0,0.0,0.019999999552965164,0.0,0.0,0.0,0.019999999552965164,-0.10295066982507706,0.30526071786880493,9.77013874053955,0.03999999910593033,0.0,0.0,0.0,0.03999999910593033,0.0,0.0,0.0,0.03999999910593033
1778815186902056295,266038,1778815186879148056,imu_link,0.013203893788158894,-0.0066608344204723835,-0.5966165065765381,0.8023849725723267,0.0024999999441206455,0.0,0.0,0.0,0.0024999999441206455,0.0,0.0,0.0,0.0024999999441206455,0.0,0.0,0.0,0.019999999552965164,0.0,0.0,0.0,0.019999999552965164,0.0,0.0,0.0,0.019999999552965164,-0.0628477931022644,0.3214215636253357,9.781511306762695,0.03999999910593033,0.0,0.0,0.0,0.03999999910593033,0.0,0.0,0.0,0.03999999910593033
1778815186907656792,266039,1778815186884148056,imu_link,0.013203893788158894,-0.0066608344204723835,-0.5966165065765381,0.8023849725723267,0.0024999999441206455,0.0,0.0,0.0,0.0024999999441206455,0.0,0.0,0.0,0.0024999999441206455,0.0,0.0,0.0,0.019999999552965164,0.0,0.0,0.0,0.019999999552965164,0.0,0.0,0.0,0.019999999552965164,-0.0628477931022644,0.3214215636253357,9.781511306762695,0.03999999910593033,0.0,0.0,0.0,0.03999999910593033,0.0,0.0,0.0,0.03999999910593033
1778815186913729468,266040,1778815186889148056,imu_link,0.01388605684041977,-0.006364195607602596,-0.5966188907623291,0.8023740649223328,0.0024999999441206455,0.0,0.0,0.0,0.0024999999441206455,0.0,0.0,0.0,0.0024999999441206455,0.0,0.0,0.0,0.019999999552965164,0.0,0.0,0.0,0.019999999552965164,0.0,0.0,0.0,0.019999999552965164,-0.08140285313129425,0.30226796865463257,9.73781681060791,0.03999999910593033,0.0,0.0,0.0,0.03999999910593033,0.0,0.0,0.0,0.03999999910593033
1778815186938180262,266041,1778815186898148056,imu_link,0.01500354241579771,-0.0067147123627364635,-0.5966097116470337,0.8023579120635986,0.0024999999441206455,0.0,0.0,0.0,0.0024999999441206455,0.0,0.0,0.0,0.0024999999441206455,0.0,0.0,0.0,0.019999999552965164,0.0,0.0,0.0,0.019999999552965164,0.0,0.0,0.0,0.019999999552965164,-0.07003039866685867,0.314238965511322,9.730035781860352,0.03999999910593033,0.0,0.0,0.0,0.03999999910593033,0.0,0.0,0.0,0.03999999910593033
1778815186960171854,266042,1778815186951148056,imu_link,0.018164092674851418,-0.010330885648727417,-0.596533477306366,0.8023107647895813,0.0024999999441206455,0.0,0.0,0.0,0.0024999999441206455,0.0,0.0,0.0,0.0024999999441206455,0.0,0.0,0.0,0.019999999552965164,0.0,0.0,0.0,0.019999999552965164,0.0,0.0,0.0,0.019999999552965164,-0.06584054231643677,0.3315969407558441,9.773131370544434,0.03999999910593033,0.0,0.0,0.0,0.03999999910593033,0.0,0.0,0.0,0.03999999910593033
1778815186968364058,266043,1778815186953148056,imu_link,0.017675070092082024,-0.00984281674027443,-0.5965447425842285,0.8023194670677185,0.0024999999441206455,0.0,0.0,0.0,0.0024999999441206455,0.0,0.0,0.0,0.0024999999441206455,0.0,0.0,0.0,0.019999999552965164,0.0,0.0,0.0,0.019999999552965164,0.0,0.0,0.0,0.019999999552965164,-0.0586579404771328,0.34356793761253357,9.75278091430664,0.03999999910593033,0.0,0.0,0.0,0.03999999910593033,0.0,0.0,0.0,0.03999999910593033
1778815186973685657,266044,1778815186958148056,imu_link,0.017675070092082024,-0.00984281674027443,-0.5965447425842285,0.8023194670677185,0.0024999999441206455,0.0,0.0,0.0,0.0024999999441206455,0.0,0.0,0.0,0.0024999999441206455,0.0,0.0,0.0,0.019999999552965164,0.0,0.0,0.0,0.019999999552965164,0.0,0.0,0.0,0.019999999552965164,-0.0586579404771328,0.34356793761253357,9.75278091430664,0.03999999910593033,0.0,0.0,0.0,0.03999999910593033,0.0,0.0,0.0,0.03999999910593033
1778815186979224973,266045,1778815186963148056,imu_link,0.017229774966835976,-0.009244212880730629,-0.5965577363967896,0.8023265600204468,0.0024999999441206455,0.0,0.0,0.0,0.0024999999441206455,0.0,0.0,0.0,0.0024999999441206455,0.0,0.0,0.0,0.019999999552965164,0.0,0.0,0.0,0.019999999552965164,0.0,0.0,0.0,0.019999999552965164,-0.07541735470294952,0.3124433159828186,9.754575729370117,0.03999999910593033,0.0,0.0,0.0,0.03999999910593033,0.0,0.0,0.0,0.03999999910593033
1778815186985327724,266046,1778815186968148056,imu_link,0.01677834242582321,-0.008657466620206833,-0.5965701937675476,0.8023333549499512,0.0024999999441206455,0.0,0.0,0.0,0.0024999999441206455,0.0,0.0,0.0,0.0024999999441206455,0.0,0.0,0.0,0.019999999552965164,0.0,0.0,0.0,0.019999999552965164,0.0,0.0,0.0,0.019999999552965164,-0.07900865375995636,0.29628247022628784,9.764751434326172,0.03999999910593033,0.0,0.0,0.0,0.03999999910593033,0.0,0.0,0.0,0.03999999910593033
1778815186991467688,266047,1778815186973148056,imu_link,0.01677834242582321,-0.008657466620206833,-0.5965701937675476,0.8023333549499512,0.0024999999441206455,0.0,0.0,0.0,0.0024999999441206455,0.0,0.0,0.0,0.0024999999441206455,0.0,0.0,0.0,0.019999999552965164,0.0,0.0,0.0,0.019999999552965164,0.0,0.0,0.0,0.019999999552965164,-0.07900865375995636,0.29628247022628784,9.764751434326172,0.03999999910593033,0.0,0.0,0.0,0.03999999910593033,0.0,0.0,0.0,0.03999999910593033
1778815187000264870,266048,1778815186978148056,imu_link,0.016459517180919647,-0.007986179552972317,-0.5965835452079773,0.8023370504379272,0.0024999999441206455,0.0,0.0,0.0,0.0024999999441206455,0.0,0.0,0.0,0.0024999999441206455,0.0,0.0,0.0,0.019999999552965164,0.0,0.0,0.0,0.019999999552965164,0.0,0.0,0.0,0.019999999552965164,-0.076015904545784,0.33279404044151306,9.748590469360352,0.03999999910593033,0.0,0.0,0.0,0.03999999910593033,0.0,0.0,0.0,0.03999999910593033
1778815187021811674,266049,1778815186987148056,imu_link,0.015697946771979332,-0.0070946840569376945,-0.5966018438339233,0.8023472428321838,0.0024999999441206455,0.0,0.0,0.0,0.0024999999441206455,0.0,0.0,0.0,0.0024999999441206455,0.0,0.0,0.0,0.019999999552965164,0.0,0.0,0.0,0.019999999552965164,0.0,0.0,0.0,0.019999999552965164,-0.07422025501728058,0.31842881441116333,9.769539833068848,0.03999999910593033,0.0,0.0,0.0,0.03999999910593033,0.0,0.0,0.0,0.03999999910593033
1778815187031247478,266050,1778815186992148056,imu_link,0.015697946771979332,-0.0070946840569376945,-0.5966018438339233,0.8023472428321838,0.0024999999441206455,0.0,0.0,0.0,0.0024999999441206455,0.0,0.0,0.0,0.0024999999441206455,0.0,0.0,0.0,0.019999999552965164,0.0,0.0,0.0,0.019999999552965164,0.0,0.0,0.0,0.019999999552965164,-0.07422025501728058,0.31842881441116333,9.769539833068848,0.03999999910593033,0.0,0.0,0.0,0.03999999910593033,0.0,0.0,0.0,0.03999999910593033
1778815187052433023,266051,1778815187036148056,imu_link,0.016998406499624252,-0.002887732582166791,-0.5966620445251465,0.8023020029067993,0.0024999999441206455,0.0,0.0,0.0,0.0024999999441206455,0.0,0.0,0.0,0.0024999999441206455,0.0,0.0,0.0,0.019999999552965164,0.0,0.0,0.0,0.019999999552965164,0.0,0.0,0.0,0.019999999552965164,-0.10354921966791153,0.3166331648826599,9.73781681060791,0.03999999910593033,0.0,0.0,0.0,0.03999999910593033,0.0,0.0,0.0,0.03999999910593033
1778815187057945448,266052,1778815187038148056,imu_link,0.01674497313797474,-0.003531636204570532,-0.5966539978981018,0.8023107647895813,0.0024999999441206455,0.0,0.0,0.0,0.0024999999441206455,0.0,0.0,0.0,0.0024999999441206455,0.0,0.0,0.0,0.019999999552965164,0.0,0.0,0.0,0.019999999552965164,0.0,0.0,0.0,0.019999999552965164,-0.06584054231643677,0.3232172131538391,9.749787330627441,0.03999999910593033,0.0,0.0,0.0,0.03999999910593033,0.0,0.0,0.0,0.03999999910593033
1778815187065053425,266053,1778815187043148056,imu_link,0.01674497313797474,-0.003531636204570532,-0.5966539978981018,0.8023107647895813,0.0024999999441206455,0.0,0.0,0.0,0.0024999999441206455,0.0,0.0,0.0,0.0024999999441206455,0.0,0.0,0.0,0.019999999552965164,0.0,0.0,0.0,0.019999999552965164,0.0,0.0,0.0,0.019999999552965164,-0.06584054231643677,0.3232172131538391,9.749787330627441,0.03999999910593033,0.0,0.0,0.0,0.03999999910593033,0.0,0.0,0.0,0.03999999910593033
1778815187071184338,266054,1778815187048148056,imu_link,0.016407955437898636,-0.004197468515485525,-0.5966458916664124,0.8023205399513245,0.0024999999441206455,0.0,0.0,0.0,0.0024999999441206455,0.0,0.0,0.0,0.0024999999441206455,0.0,0.0,0.0,0.019999999552965164,0.0,0.0,0.0,0.019999999552965164,0.0,0.0,0.0,0.019999999552965164,-0.08499415963888168,0.3130418658256531,9.761159896850586,0.03999999910593033,0.0,0.0,0.0,0.03999999910593033,0.0,0.0,0.0,0.03999999910593033
1778815187076458433,266055,1778815187053148056,imu_link,0.01594506949186325,-0.004776522517204285,-0.5966395735740662,0.802331268787384,0.0024999999441206455,0.0,0.0,0.0,0.0024999999441206455,0.0,0.0,0.0,0.0024999999441206455,0.0,0.0,0.0,0.019999999552965164,0.0,0.0,0.0,0.019999999552965164,0.0,0.0,0.0,0.019999999552965164,-0.08738835901021957,0.304063618183136,9.739612579345703,0.03999999910593033,0.0,0.0,0.0,0.03999999910593033,0.0,0.0,0.0,0.03999999910593033
1778815187082353504,266056,1778815187058148056,imu_link,0.01594506949186325,-0.004776522517204285,-0.5966395735740662,0.802331268787384,0.0024999999441206455,0.0,0.0,0.0,0.0024999999441206455,0.0,0.0,0.0,0.0024999999441206455,0.0,0.0,0.0,0.019999999552965164,0.0,0.0,0.0,0.019999999552965164,0.0,0.0,0.0,0.019999999552965164,-0.08738835901021957,0.304063618183136,9.739612579345703,0.03999999910593033,0.0,0.0,0.0,0.03999999910593033,0.0,0.0,0.0,0.03999999910593033
1778815187088958843,266057,1778815187063148056,imu_link,0.016345588490366936,-0.005402144510298967,-0.596627414226532,0.8023284673690796,0.0024999999441206455,0.0,0.0,0.0,0.0024999999441206455,0.0,0.0,0.0,0.0024999999441206455,0.0,0.0,0.0,0.019999999552965164,0.0,0.0,0.0,0.019999999552965164,0.0,0.0,0.0,0.019999999552965164,-0.09816227108240128,0.33937808871269226,9.7605619430542,0.03999999910593033,0.0,0.0,0.0,0.03999999910593033,0.0,0.0,0.0,0.03999999910593033
1778815187131534634,266058,1778815187120148056,imu_link,0.01328094583004713,-0.00993931945413351,-0.5965608954429626,0.8023910522460938,0.0024999999441206455,0.0,0.0,0.0,0.0024999999441206455,0.0,0.0,0.0,0.0024999999441206455,0.0,0.0,0.0,0.019999999552965164,0.0,0.0,0.0,0.019999999552965164,0.0,0.0,0.0,0.019999999552965164,-0.05267243832349777,0.32202011346817017,9.775525093078613,0.03999999910593033,0.0,0.0,0.0,0.03999999910593033,0.0,0.0,0.0,0.03999999910593033
1778815187136951237,266059,1778815187122148056,imu_link,0.013586103916168213,-0.009327725507318974,-0.5965709090232849,0.8023858070373535,0.0024999999441206455,0.0,0.0,0.0,0.0024999999441206455,0.0,0.0,0.0,0.0024999999441206455,0.0,0.0,0.0,0.019999999552965164,0.0,0.0,0.0,0.019999999552965164,0.0,0.0,0.0,0.019999999552965164,-0.08738835901021957,0.30885201692581177,9.780912399291992,0.03999999910593033,0.0,0.0,0.0,0.03999999910593033,0.0,0.0,0.0,0.03999999910593033
1778815187142796268,266060,1778815187127148056,imu_link,0.013586103916168213,-0.009327725507318974,-0.5965709090232849,0.8023858070373535,0.0024999999441206455,0.0,0.0,0.0,0.0024999999441206455,0.0,0.0,0.0,0.0024999999441206455,0.0,0.0,0.0,0.019999999552965164,0.0,0.0,0.0,0.019999999552965164,0.0,0.0,0.0,0.019999999552965164,-0.08738835901021957,0.30885201692581177,9.780912399291992,0.03999999910593033,0.0,0.0,0.0,0.03999999910593033,0.0,0.0,0.0,0.03999999910593033
1778815187148307186,266061,1778815187132148056,imu_link,0.014196749776601791,-0.008901403285562992,-0.5965774059295654,0.8023752570152283,0.0024999999441206455,0.0,0.0,0.0,0.0024999999441206455,0.0,0.0,0.0,0.0024999999441206455,0.0,0.0,0.0,0.019999999552965164,0.0,0.0,0.0,0.019999999552965164,0.0,0.0,0.0,0.019999999552965164,-0.06344634294509888,0.3387795388698578,9.761758804321289,0.03999999910593033,0.0,0.0,0.0,0.03999999910593033,0.0,0.0,0.0,0.03999999910593033
1778815187153854784,266062,1778815187137148056,imu_link,0.014618937857449055,-0.008291233330965042,-0.5965868830680847,0.8023672103881836,0.0024999999441206455,0.0,0.0,0.0,0.0024999999441206455,0.0,0.0,0.0,0.0024999999441206455,0.0,0.0,0.0,0.019999999552965164,0.0,0.0,0.0,0.019999999552965164,0.0,0.0,0.0,0.019999999552965164,-0.07362169772386551,0.32501286268234253,9.773131370544434,0.03999999910593033,0.0,0.0,0.0,0.03999999910593033,0.0,0.0,0.0,0.03999999910593033
1778815187160223378,266063,1778815187142148056,imu_link,0.014618937857449055,-0.008291233330965042,-0.5965868830680847,0.8023672103881836,0.0024999999441206455,0.0,0.0,0.0,0.0024999999441206455,0.0,0.0,0.0,0.0024999999441206455,0.0,0.0,0.0,0.019999999552965164,0.0,0.0,0.0,0.019999999552965164,0.0,0.0,0.0,0.019999999552965164,-0.07362169772386551,0.32501286268234253,9.773131370544434,0.03999999910593033,0.0,0.0,0.0,0.03999999910593033,0.0,0.0,0.0,0.03999999910593033
1778815187167937882,266064,1778815187147148056,imu_link,0.014651298522949219,-0.007546519860625267,-0.5965990424156189,0.8023648858070374,0.0024999999441206455,0.0,0.0,0.0,0.0024999999441206455,0.0,0.0,0.0,0.0024999999441206455,0.0,0.0,0.0,0.019999999552965164,0.0,0.0,0.0,0.019999999552965164,0.0,0.0,0.0,0.019999999552965164,-0.07841010391712189,0.2998737692832947,9.758766174316406,0.03999999910593033,0.0,0.0,0.0,0.03999999910593033,0.0,0.0,0.0,0.03999999910593033
1778815187189456717,266065,1778815187156148056,imu_link,0.015714459121227264,-0.007050529588013887,-0.5966038107872009,0.8023456931114197,0.0024999999441206455,0.0,0.0,0.0,0.0024999999441206455,0.0,0.0,0.0,0.0024999999441206455,0.0,0.0,0.0,0.019999999552965164,0.0,0.0,0.0,0.019999999552965164,0.0,0.0,0.0,0.019999999552965164,-0.07062894850969315,0.32680851221084595,9.742006301879883,0.03999999910593033,0.0,0.0,0.0,0.03999999910593033,0.0,0.0,0.0,0.03999999910593033
1778815187198237685,266066,1778815187161148056,imu_link,0.015714459121227264,-0.007050529588013887,-0.5966038107872009,0.8023456931114197,0.0024999999441206455,0.0,0.0,0.0,0.0024999999441206455,0.0,0.0,0.0,0.0024999999441206455,0.0,0.0,0.0,0.019999999552965164,0.0,0.0,0.0,0.019999999552965164,0.0,0.0,0.0,0.019999999552965164,-0.07062894850969315,0.32680851221084595,9.742006301879883,0.03999999910593033,0.0,0.0,0.0,0.03999999910593033,0.0,0.0,0.0,0.03999999910593033
1778815187220161340,266067,1778815187212148056,imu_link,0.012273523025214672,-0.0032741313334554434,-0.5966722965240479,0.8023790121078491,0.0024999999441206455,0.0,0.0,0.0,0.0024999999441206455,0.0,0.0,0.0,0.0024999999441206455,0.0,0.0,0.0,0.019999999552965164,0.0,0.0,0.0,0.019999999552965164,0.0,0.0,0.0,0.019999999552965164,-0.07541735470294952,0.3130418658256531,9.745597839355469,0.03999999910593033,0.0,0.0,0.0,0.03999999910593033,0.0,0.0,0.0,0.03999999910593033
1778815187226415950,266068,1778815187214148056,imu_link,0.012803658843040466,-0.0037239384837448597,-0.5966644287109375,0.8023747801780701,0.0024999999441206455,0.0,0.0,0.0,0.0024999999441206455,0.0,0.0,0.0,0.0024999999441206455,0.0,0.0,0.0,0.019999999552965164,0.0,0.0,0.0,0.019999999552965164,0.0,0.0,0.0,0.019999999552965164,-0.08619125932455063,0.3190273642539978,9.776124000549316,0.03999999910593033,0.0,0.0,0.0,0.03999999910593033,0.0,0.0,0.0,0.03999999910593033
1778815187234819626,266069,1778815187219148056,imu_link,0.012803658843040466,-0.0037239384837448597,-0.5966644287109375,0.8023747801780701,0.0024999999441206455,0.0,0.0,0.0,0.0024999999441206455,0.0,0.0,0.0,0.0024999999441206455,0.0,0.0,0.0,0.019999999552965164,0.0,0.0,0.0,0.019999999552965164,0.0,0.0,0.0,0.019999999552965164,-0.08619125932455063,0.3190273642539978,9.776124000549316,0.03999999910593033,0.0,0.0,0.0,0.03999999910593033,0.0,0.0,0.0,0.03999999910593033
1778815187240846922,266070,1778815187224148056,imu_link,0.013367125764489174,-0.004213438369333744,-0.5966554880142212,0.8023697733879089,0.0024999999441206455,0.0,0.0,0.0,0.0024999999441206455,0.0,0.0,0.0,0.0024999999441206455,0.0,0.0,0.0,0.019999999552965164,0.0,0.0,0.0,0.019999999552965164,0.0,0.0,0.0,0.019999999552965164,-0.08499415963888168,0.31842881441116333,9.743204116821289,0.03999999910593033,0.0,0.0,0.0,0.03999999910593033,0.0,0.0,0.0,0.03999999910593033
1778815187245676785,266071,1778815187229148056,imu_link,0.013710535131394863,-0.004868214018642902,-0.5966450572013855,0.8023680448532104,0.0024999999441206455,0.0,0.0,0.0,0.0024999999441206455,0.0,0.0,0.0,0.0024999999441206455,0.0,0.0,0.0,0.019999999552965164,0.0,0.0,0.0,0.019999999552965164,0.0,0.0,0.0,0.019999999552965164,-0.06224924325942993,0.31543606519699097,9.754575729370117,0.03999999910593033,0.0,0.0,0.0,0.03999999910593033,0.0,0.0,0.0,0.03999999910593033
1778815187251171802,266072,1778815187234148056,imu_link,0.013710535131394863,-0.004868214018642902,-0.5966450572013855,0.8023680448532104,0.0024999999441206455,0.0,0.0,0.0,0.0024999999441206455,0.0,0.0,0.0,0.0024999999441206455,0.0,0.0,0.0,0.019999999552965164,0.0,0.0,0.0,0.019999999552965164,0.0,0.0,0.0,0.019999999552965164,-0.06224924325942993,0.31543606519699097,9.754575729370117,0.03999999910593033,0.0,0.0,0.0,0.03999999910593033,0.0,0.0,0.0,0.03999999910593033
1778815187256751428,266073,1778815187239148056,imu_link,0.013993182219564915,-0.00555650657042861,-0.5966340899467468,0.8023667931556702,0.0024999999441206455,0.0,0.0,0.0,0.0024999999441206455,0.0,0.0,0.0,0.0024999999441206455,0.0,0.0,0.0,0.019999999552965164,0.0,0.0,0.0,0.019999999552965164,0.0,0.0,0.0,0.019999999552965164,-0.06224924325942993,0.3076549172401428,9.779715538024902,0.03999999910593033,0.0,0.0,0.0,0.03999999910593033,0.0,0.0,0.0,0.03999999910593033
1778815187281430227,266074,1778815187248148056,imu_link,0.015164353884756565,-0.005501278676092625,-0.5966299176216125,0.8023490309715271,0.0024999999441206455,0.0,0.0,0.0,0.0024999999441206455,0.0,0.0,0.0,0.0024999999441206455,0.0,0.0,0.0,0.019999999552965164,0.0,0.0,0.0,0.019999999552965164,0.0,0.0,0.0,0.019999999552965164,-0.09457096457481384,0.3058592677116394,9.716867446899414,0.03999999910593033,0.0,0.0,0.0,0.03999999910593033,0.0,0.0,0.0,0.03999999910593033
1778815187286982707,266075,1778815187253148056,imu_link,0.015164353884756565,-0.005501278676092625,-0.5966299176216125,0.8023490309715271,0.0024999999441206455,0.0,0.0,0.0,0.0024999999441206455,0.0,0.0,0.0,0.0024999999441206455,0.0,0.0,0.0,0.019999999552965164,0.0,0.0,0.0,0.019999999552965164,0.0,0.0,0.0,0.019999999552965164,-0.09457096457481384,0.3058592677116394,9.716867446899414,0.03999999910593033,0.0,0.0,0.0,0.03999999910593033,0.0,0.0,0.0,0.03999999910593033
1778815187293657207,266076,1778815187258148056,imu_link,0.01509988121688366,-0.006243755575269461,-0.5966185927391052,0.8023532629013062,0.0024999999441206455,0.0,0.0,0.0,0.0024999999441206455,0.0,0.0,0.0,0.0024999999441206455,0.0,0.0,0.0,0.019999999552965164,0.0,0.0,0.0,0.019999999552965164,0.0,0.0,0.0,0.019999999552965164,-0.07900865375995636,0.30945056676864624,9.777320861816406,0.03999999910593033,0.0,0.0,0.0,0.03999999910593033,0.0,0.0,0.0,0.03999999910593033
1778815187301449756,266077,1778815187263148056,imu_link,0.015620749443769455,-0.006767763756215572,-0.5966079831123352,0.8023468255996704,0.0024999999441206455,0.0,0.0,0.0,0.0024999999441206455,0.0,0.0,0.0,0.0024999999441206455,0.0,0.0,0.0,0.019999999552965164,0.0,0.0,0.0,0.019999999552965164,0.0,0.0,0.0,0.019999999552965164,-0.07481880486011505,0.3315969407558441,9.763554573059082,0.03999999910593033,0.0,0.0,0.0,0.03999999910593033,0.0,0.0,0.0,0.03999999910593033
1778815187322766493,266078,1778815187316148056,imu_link,0.011969704180955887,-0.009903861209750175,-0.5965632796287537,0.8024103045463562,0.0024999999441206455,0.0,0.0,0.0,0.0024999999441206455,0.0,0.0,0.0,0.0024999999441206455,0.0,0.0,0.0,0.019999999552965164,0.0,0.0,0.0,0.019999999552965164,0.0,0.0,0.0,0.019999999552965164,-0.06823474913835526,0.32202011346817017,9.763554573059082,0.03999999910593033,0.0,0.0,0.0,0.03999999910593033,0.0,0.0,0.0,0.03999999910593033
1778815187331074412,266079,1778815187318148056,imu_link,0.012503890320658684,-0.009474423713982105,-0.5965702533721924,0.802402138710022,0.0024999999441206455,0.0,0.0,0.0,0.0024999999441206455,0.0,0.0,0.0,0.0024999999441206455,0.0,0.0,0.0,0.019999999552965164,0.0,0.0,0.0,0.019999999552965164,0.0,0.0,0.0,0.019999999552965164,-0.07182604819536209,0.32680851221084595,9.79408073425293,0.03999999910593033,0.0,0.0,0.0,0.03999999910593033,0.0,0.0,0.0,0.03999999910593033
1778815187337201570,266080,1778815187323148056,imu_link,0.012503890320658684,-0.009474423713982105,-0.5965702533721924,0.802402138710022,0.0024999999441206455,0.0,0.0,0.0,0.0024999999441206455,0.0,0.0,0.0,0.0024999999441206455,0.0,0.0,0.0,0.019999999552965164,0.0,0.0,0.0,0.019999999552965164,0.0,0.0,0.0,0.019999999552965164,-0.07182604819536209,0.32680851221084595,9.79408073425293,0.03999999910593033,0.0,0.0,0.0,0.03999999910593033,0.0,0.0,0.0,0.03999999910593033
1778815187343275092,266081,1778815187328148056,imu_link,0.01293242909014225,-0.008866716176271439,-0.5965796709060669,0.802395224571228,0.0024999999441206455,0.0,0.0,0.0,0.0024999999441206455,0.0,0.0,0.0,0.0024999999441206455,0.0,0.0,0.0,0.019999999552965164,0.0,0.0,0.0,0.019999999552965164,0.0,0.0,0.0,0.019999999552965164,-0.07900865375995636,0.304063618183136,9.753378868103027,0.03999999910593033,0.0,0.0,0.0,0.03999999910593033,0.0,0.0,0.0,0.03999999910593033
1778815187347721478,266082,1778815187333148056,imu_link,0.01344190165400505,-0.008326725102961063,-0.5965877175331116,0.8023867607116699,0.0024999999441206455,0.0,0.0,0.0,0.0024999999441206455,0.0,0.0,0.0,0.0024999999441206455,0.0,0.0,0.0,0.019999999552965164,0.0,0.0,0.0,0.019999999552965164,0.0,0.0,0.0,0.019999999552965164,-0.0802057534456253,0.3148375153541565,9.786299705505371,0.03999999910593033,0.0,0.0,0.0,0.03999999910593033,0.0,0.0,0.0,0.03999999910593033
1778815187353415010,266083,1778815187338148056,imu_link,0.01344190165400505,-0.008326725102961063,-0.5965877175331116,0.8023867607116699,0.0024999999441206455,0.0,0.0,0.0,0.0024999999441206455,0.0,0.0,0.0,0.0024999999441206455,0.0,0.0,0.0,0.019999999552965164,0.0,0.0,0.0,0.019999999552965164,0.0,0.0,0.0,0.019999999552965164,-0.0802057534456253,0.3148375153541565,9.786299705505371,0.03999999910593033,0.0,0.0,0.0,0.03999999910593033,0.0,0.0,0.0,0.03999999910593033
1778815187359158516,266084,1778815187343148056,imu_link,0.014129260554909706,-0.008037667721509933,-0.5965911746025085,0.8023752570152283,0.0024999999441206455,0.0,0.0,0.0,0.0024999999441206455,0.0,0.0,0.0,0.0024999999441206455,0.0,0.0,0.0,0.019999999552965164,0.0,0.0,0.0,0.019999999552965164,0.0,0.0,0.0,0.019999999552965164,-0.06883329898118973,0.33279404044151306,9.756970405578613,0.03999999910593033,0.0,0.0,0.0,0.03999999910593033,0.0,0.0,0.0,0.03999999910593033
1778815187383257601,266085,1778815187352148056,imu_link,0.014125910587608814,-0.006860158871859312,-0.5966097712516785,0.8023724555969238,0.0024999999441206455,0.0,0.0,0.0,0.0024999999441206455,0.0,0.0,0.0,0.0024999999441206455,0.0,0.0,0.0,0.019999999552965164,0.0,0.0,0.0,0.019999999552965164,0.0,0.0,0.0,0.019999999552965164,-0.07721300423145294,0.28550854325294495,9.739612579345703,0.03999999910593033,0.0,0.0,0.0,0.03999999910593033,0.0,0.0,0.0,0.03999999910593033
1778815187389678671,266086,1778815187357148056,imu_link,0.014125910587608814,-0.006860158871859312,-0.5966097712516785,0.8023724555969238,0.0024999999441206455,0.0,0.0,0.0,0.0024999999441206455,0.0,0.0,0.0,0.0024999999441206455,0.0,0.0,0.0,0.019999999552965164,0.0,0.0,0.0,0.019999999552965164,0.0,0.0,0.0,0.019999999552965164,-0.07721300423145294,0.28550854325294495,9.739612579345703,0.03999999910593033,0.0,0.0,0.0,0.03999999910593033,0.0,0.0,0.0,0.03999999910593033
1778815187398130676,266087,1778815187362148056,imu_link,0.01475505717098713,-0.007258076220750809,-0.596601665019989,0.8023636937141418,0.0024999999441206455,0.0,0.0,0.0,0.0024999999441206455,0.0,0.0,0.0,0.0024999999441206455,0.0,0.0,0.0,0.019999999552965164,0.0,0.0,0.0,0.019999999552965164,0.0,0.0,0.0,0.019999999552965164,-0.05925649031996727,0.3274070918560028,9.814431190490723,0.03999999910593033,0.0,0.0,0.0,0.03999999910593033,0.0,0.0,0.0,0.03999999910593033
1778815187403856263,266088,1778815187367148056,imu_link,0.014664730057120323,-0.006525128614157438,-0.5966135859489441,0.8023627400398254,0.0024999999441206455,0.0,0.0,0.0,0.0024999999441206455,0.0,0.0,0.0,0.0024999999441206455,0.0,0.0,0.0,0.019999999552965164,0.0,0.0,0.0,0.019999999552965164,0.0,0.0,0.0,0.019999999552965164,-0.07721300423145294,0.29628247022628784,9.724648475646973,0.03999999910593033,0.0,0.0,0.0,0.03999999910593033,0.0,0.0,0.0,0.03999999910593033
1778815187409483582,266089,1778815187372148056,imu_link,0.014664730057120323,-0.006525128614157438,-0.5966135859489441,0.8023627400398254,0.0024999999441206455,0.0,0.0,0.0,0.0024999999441206455,0.0,0.0,0.0,0.0024999999441206455,0.0,0.0,0.0,0.019999999552965164,0.0,0.0,0.0,0.019999999552965164,0.0,0.0,0.0,0.019999999552965164,-0.07721300423145294,0.29628247022628784,9.724648475646973,0.03999999910593033,0.0,0.0,0.0,0.03999999910593033,0.0,0.0,0.0,0.03999999910593033
1778815187433202157,266090,1778815187419148056,imu_link,0.019360700622200966,-0.006055233534425497,-0.5965978503227234,0.8022786378860474,0.0024999999441206455,0.0,0.0,0.0,0.0024999999441206455,0.0,0.0,0.0,0.0024999999441206455,0.0,0.0,0.0,0.019999999552965164,0.0,0.0,0.0,0.019999999552965164,0.0,0.0,0.0,0.019999999552965164,-0.07960720360279083,0.31783026456832886,9.757569313049316,0.03999999910593033,0.0,0.0,0.0,0.03999999910593033,0.0,0.0,0.0,0.03999999910593033
1778815187438232519,266091,1778815187421148056,imu_link,0.0186786986887455,-0.0061171087436378,-0.5966010093688965,0.8022918105125427,0.0024999999441206455,0.0,0.0,0.0,0.0024999999441206455,0.0,0.0,0.0,0.0024999999441206455,0.0,0.0,0.0,0.019999999552965164,0.0,0.0,0.0,0.019999999552965164,0.0,0.0,0.0,0.019999999552965164,-0.07781155407428741,0.3148375153541565,9.7605619430542,0.03999999910593033,0.0,0.0,0.0,0.03999999910593033,0.0,0.0,0.0,0.03999999910593033
1778815187443850886,266092,1778815187426148056,imu_link,0.0186786986887455,-0.0061171087436378,-0.5966010093688965,0.8022918105125427,0.0024999999441206455,0.0,0.0,0.0,0.0024999999441206455,0.0,0.0,0.0,0.0024999999441206455,0.0,0.0,0.0,0.019999999552965164,0.0,0.0,0.0,0.019999999552965164,0.0,0.0,0.0,0.019999999552965164,-0.07781155407428741,0.3148375153541565,9.7605619430542,0.03999999910593033,0.0,0.0,0.0,0.03999999910593033,0.0,0.0,0.0,0.03999999910593033
1778815187449672307,266093,1778815187431148056,imu_link,0.017935356125235558,-0.006076641846448183,-0.5966062545776367,0.8023052215576172,0.0024999999441206455,0.0,0.0,0.0,0.0024999999441206455,0.0,0.0,0.0,0.0024999999441206455,0.0,0.0,0.0,0.019999999552965164,0.0,0.0,0.0,0.019999999552965164,0.0,0.0,0.0,0.019999999552965164,-0.07242459803819656,0.28969839215278625,9.774328231811523,0.03999999910593033,0.0,0.0,0.0,0.03999999910593033,0.0,0.0,0.0,0.03999999910593033
1778815187454570285,266094,1778815187436148056,imu_link,0.017196400091052055,-0.006142068654298782,-0.5966091752052307,0.8023186922073364,0.0024999999441206455,0.0,0.0,0.0,0.0024999999441206455,0.0,0.0,0.0,0.0024999999441206455,0.0,0.0,0.0,0.019999999552965164,0.0,0.0,0.0,0.019999999552965164,0.0,0.0,0.0,0.019999999552965164,-0.08559270948171616,0.32022446393966675,9.759364128112793,0.03999999910593033,0.0,0.0,0.0,0.03999999910593033,0.0,0.0,0.0,0.03999999910593033
1778815187461459307,266095,1778815187441148056,imu_link,0.017196400091052055,-0.006142068654298782,-0.5966091752052307,0.8023186922073364,0.0024999999441206455,0.0,0.0,0.0,0.0024999999441206455,0.0,0.0,0.0,0.0024999999441206455,0.0,0.0,0.0,0.019999999552965164,0.0,0.0,0.0,0.019999999552965164,0.0,0.0,0.0,0.019999999552965164,-0.08559270948171616,0.32022446393966675,9.759364128112793,0.03999999910593033,0.0,0.0,0.0,0.03999999910593033,0.0,0.0,0.0,0.03999999910593033
1778815187468607793,266096,1778815187446148056,imu_link,0.016460048034787178,-0.00602615624666214,-0.5966149568557739,0.8023306727409363,0.0024999999441206455,0.0,0.0,0.0,0.0024999999441206455,0.0,0.0,0.0,0.0024999999441206455,0.0,0.0,0.0,0.019999999552965164,0.0,0.0,0.0,0.019999999552965164,0.0,0.0,0.0,0.019999999552965164,-0.090979665517807,0.31603461503982544,9.763554573059082,0.03999999910593033,0.0,0.0,0.0,0.03999999910593033,0.0,0.0,0.0,0.03999999910593033
1778815187490961017,266097,1778815187455148056,imu_link,0.01529582217335701,-0.005871231202036142,-0.5966230034828186,0.8023489713668823,0.0024999999441206455,0.0,0.0,0.0,0.0024999999441206455,0.0,0.0,0.0,0.0024999999441206455,0.0,0.0,0.0,0.019999999552965164,0.0,0.0,0.0,0.019999999552965164,0.0,0.0,0.0,0.019999999552965164,-0.07661445438861847,0.2908954918384552,9.766547203063965,0.03999999910593033,0.0,0.0,0.0,0.03999999910593033,0.0,0.0,0.0,0.03999999910593033
1778815187500091728,266098,1778815187460148056,imu_link,0.01529582217335701,-0.005871231202036142,-0.5966230034828186,0.8023489713668823,0.0024999999441206455,0.0,0.0,0.0,0.0024999999441206455,0.0,0.0,0.0,0.0024999999441206455,0.0,0.0,0.0,0.019999999552965164,0.0,0.0,0.0,0.019999999552965164,0.0,0.0,0.0,0.019999999552965164,-0.07661445438861847,0.2908954918384552,9.766547203063965,0.03999999910593033,0.0,0.0,0.0,0.03999999910593033,0.0,0.0,0.0,0.03999999910593033
1778815187520240714,266099,1778815187510148056,imu_link,0.017556143924593925,-0.010334329679608345,-0.5965352058410645,0.8023231029510498,0.0024999999441206455,0.0,0.0,0.0,0.0024999999441206455,0.0,0.0,0.0,0.0024999999441206455,0.0,0.0,0.0,0.019999999552965164,0.0,0.0,0.0,0.019999999552965164,0.0,0.0,0.0,0.019999999552965164,-0.0802057534456253,0.3196259140968323,9.748590469360352,0.03999999910593033,0.0,0.0,0.0,0.03999999910593033,0.0,0.0,0.0,0.03999999910593033
1778815187525727511,266100,1778815187512148056,imu_link,0.017210321500897408,-0.00974216591566801,-0.5965477228164673,0.8023285269737244,0.0024999999441206455,0.0,0.0,0.0,0.0024999999441206455,0.0,0.0,0.0,0.0024999999441206455,0.0,0.0,0.0,0.019999999552965164,0.0,0.0,0.0,0.019999999552965164,0.0,0.0,0.0,0.019999999552965164,-0.07541735470294952,0.31842881441116333,9.756970405578613,0.03999999910593033,0.0,0.0,0.0,0.03999999910593033,0.0,0.0,0.0,0.03999999910593033
1778815187534217041,266101,1778815187517148056,imu_link,0.017210321500897408,-0.00974216591566801,-0.5965477228164673,0.8023285269737244,0.0024999999441206455,0.0,0.0,0.0,0.0024999999441206455,0.0,0.0,0.0,0.0024999999441206455,0.0,0.0,0.0,0.019999999552965164,0.0,0.0,0.0,0.019999999552965164,0.0,0.0,0.0,0.019999999552965164,-0.07541735470294952,0.31842881441116333,9.756970405578613,0.03999999910593033,0.0,0.0,0.0,0.03999999910593033,0.0,0.0,0.0,0.03999999910593033
1778815187539805881,266102,1778815187522148056,imu_link,0.016780678182840347,-0.009135126136243343,-0.596560537815094,0.802335262298584,0.0024999999441206455,0.0,0.0,0.0,0.0024999999441206455,0.0,0.0,0.0,0.0024999999441206455,0.0,0.0,0.0,0.019999999552965164,0.0,0.0,0.0,0.019999999552965164,0.0,0.0,0.0,0.019999999552965164,-0.07781155407428741,0.2914940416812897,9.7605619430542,0.03999999910593033,0.0,0.0,0.0,0.03999999910593033,0.0,0.0,0.0,0.03999999910593033
1778815187545426502,266103,1778815187527148056,imu_link,0.016452474519610405,-0.008469635620713234,-0.5965738296508789,0.8023394346237183,0.0024999999441206455,0.0,0.0,0.0,0.0024999999441206455,0.0,0.0,0.0,0.0024999999441206455,0.0,0.0,0.0,0.019999999552965164,0.0,0.0,0.0,0.019999999552965164,0.0,0.0,0.0,0.019999999552965164,-0.07960720360279083,0.31603461503982544,9.755773544311523,0.03999999910593033,0.0,0.0,0.0,0.03999999910593033,0.0,0.0,0.0,0.03999999910593033
1778815187552169090,266104,1778815187532148056,imu_link,0.016452474519610405,-0.008469635620713234,-0.5965738296508789,0.8023394346237183,0.0024999999441206455,0.0,0.0,0.0,0.0024999999441206455,0.0,0.0,0.0,0.0024999999441206455,0.0,0.0,0.0,0.019999999552965164,0.0,0.0,0.0,0.019999999552965164,0.0,0.0,0.0,0.019999999552965164,-0.07960720360279083,0.31603461503982544,9.755773544311523,0.03999999910593033,0.0,0.0,0.0,0.03999999910593033,0.0,0.0,0.0,0.03999999910593033
1778815187557778269,266105,1778815187537148056,imu_link,0.015966277569532394,-0.00790521688759327,-0.5965854525566101,0.8023463487625122,0.0024999999441206455,0.0,0.0,0.0,0.0024999999441206455,0.0,0.0,0.0,0.0024999999441206455,0.0,0.0,0.0,0.019999999552965164,0.0,0.0,0.0,0.019999999552965164,0.0,0.0,0.0,0.019999999552965164,-0.06584054231643677,0.32680851221084595,9.774328231811523,0.03999999910593033,0.0,0.0,0.0,0.03999999910593033,0.0,0.0,0.0,0.03999999910593033
1778815187581671248,266106,1778815187546148056,imu_link,0.015356138348579407,-0.006900314707309008,-0.5966046452522278,0.8023534417152405,0.0024999999441206455,0.0,0.0,0.0,0.0024999999441206455,0.0,0.0,0.0,0.0024999999441206455,0.0,0.0,0.0,0.019999999552965164,0.0,0.0,0.0,0.019999999552965164,0.0,0.0,0.0,0.019999999552965164,-0.08080430328845978,0.2968810200691223,9.769539833068848,0.03999999910593033,0.0,0.0,0.0,0.03999999910593033,0.0,0.0,0.0,0.03999999910593033
1778815187605521999,266107,1778815187597148056,imu_link,0.015562749467790127,-0.011496836319565773,-0.5965219736099243,0.8023581504821777,0.0024999999441206455,0.0,0.0,0.0,0.0024999999441206455,0.0,0.0,0.0,0.0024999999441206455,0.0,0.0,0.0,0.019999999552965164,0.0,0.0,0.0,0.019999999552965164,0.0,0.0,0.0,0.019999999552965164,-0.06763619929552078,0.3238157629966736,9.764751434326172,0.03999999910593033,0.0,0.0,0.0,0.03999999910593033,0.0,0.0,0.0,0.03999999910593033
1778815187611139469,266108,1778815187599148056,imu_link,0.015562759712338448,-0.01080943550914526,-0.5965351462364197,0.8023579716682434,0.0024999999441206455,0.0,0.0,0.0,0.0024999999441206455,0.0,0.0,0.0,0.0024999999441206455,0.0,0.0,0.0,0.019999999552965164,0.0,0.0,0.0,0.019999999552965164,0.0,0.0,0.0,0.019999999552965164,-0.07481880486011505,0.32202011346817017,9.732429504394531,0.03999999910593033,0.0,0.0,0.0,0.03999999910593033,0.0,0.0,0.0,0.03999999910593033
1778815187617052708,266109,1778815187604148056,imu_link,0.015562759712338448,-0.01080943550914526,-0.5965351462364197,0.8023579716682434,0.0024999999441206455,0.0,0.0,0.0,0.0024999999441206455,0.0,0.0,0.0,0.0024999999441206455,0.0,0.0,0.0,0.019999999552965164,0.0,0.0,0.0,0.019999999552965164,0.0,0.0,0.0,0.019999999552965164,-0.07481880486011505,0.32202011346817017,9.732429504394531,0.03999999910593033,0.0,0.0,0.0,0.03999999910593033,0.0,0.0,0.0,0.03999999910593033
1778815187621960375,266110,1778815187609148056,imu_link,0.015723122283816338,-0.010082310065627098,-0.5965486168861389,0.8023542165756226,0.0024999999441206455,0.0,0.0,0.0,0.0024999999441206455,0.0,0.0,0.0,0.0024999999441206455,0.0,0.0,0.0,0.019999999552965164,0.0,0.0,0.0,0.019999999552965164,0.0,0.0,0.0,0.019999999552965164,-0.09457096457481384,0.33279404044151306,9.761758804321289,0.03999999910593033,0.0,0.0,0.0,0.03999999910593033,0.0,0.0,0.0,0.03999999910593033
1778815187631386721,266111,1778815187614148056,imu_link,0.015608116053044796,-0.009350434876978397,-0.5965622067451477,0.8023552298545837,0.0024999999441206455,0.0,0.0,0.0,0.0024999999441206455,0.0,0.0,0.0,0.0024999999441206455,0.0,0.0,0.0,0.019999999552965164,0.0,0.0,0.0,0.019999999552965164,0.0,0.0,0.0,0.019999999552965164,-0.06763619929552078,0.3196259140968323,9.735422134399414,0.03999999910593033,0.0,0.0,0.0,0.03999999910593033,0.0,0.0,0.0,0.03999999910593033
1778815187636205906,266112,1778815187619148056,imu_link,0.015608116053044796,-0.009350434876978397,-0.5965622067451477,0.8023552298545837,0.0024999999441206455,0.0,0.0,0.0,0.0024999999441206455,0.0,0.0,0.0,0.0024999999441206455,0.0,0.0,0.0,0.019999999552965164,0.0,0.0,0.0,0.019999999552965164,0.0,0.0,0.0,0.019999999552965164,-0.06763619929552078,0.3196259140968323,9.735422134399414,0.03999999910593033,0.0,0.0,0.0,0.03999999910593033,0.0,0.0,0.0,0.03999999910593033
1778815187642060315,266113,1778815187624148056,imu_link,0.015609579160809517,-0.008605076931416988,-0.5965754985809326,0.8023536205291748,0.0024999999441206455,0.0,0.0,0.0,0.0024999999441206455,0.0,0.0,0.0,0.0024999999441206455,0.0,0.0,0.0,0.019999999552965164,0.0,0.0,0.0,0.019999999552965164,0.0,0.0,0.0,0.019999999552965164,-0.06823474913835526,0.3280056416988373,9.729436874389648,0.03999999910593033,0.0,0.0,0.0,0.03999999910593033,0.0,0.0,0.0,0.03999999910593033
1778815187667199344,266114,1778815187633148056,imu_link,0.01550892274826765,-0.007440102286636829,-0.596595823764801,0.8023520112037659,0.0024999999441206455,0.0,0.0,0.0,0.0024999999441206455,0.0,0.0,0.0,0.0024999999441206455,0.0,0.0,0.0,0.019999999552965164,0.0,0.0,0.0,0.019999999552965164,0.0,0.0,0.0,0.019999999552965164,-0.09038111567497253,0.3064578175544739,9.7605619430542,0.03999999910593033,0.0,0.0,0.0,0.03999999910593033,0.0,0.0,0.0,0.03999999910593033
1778815187672566811,266115,1778815187638148056,imu_link,0.01550892274826765,-0.007440102286636829,-0.596595823764801,0.8023520112037659,0.0024999999441206455,0.0,0.0,0.0,0.0024999999441206455,0.0,0.0,0.0,0.0024999999441206455,0.0,0.0,0.0,0.019999999552965164,0.0,0.0,0.0,0.019999999552965164,0.0,0.0,0.0,0.019999999552965164,-0.09038111567497253,0.3064578175544739,9.7605619430542,0.03999999910593033,0.0,0.0,0.0,0.03999999910593033,0.0,0.0,0.0,0.03999999910593033
1778815187695762445,266116,1778815187681148056,imu_link,0.012428974732756615,-0.0044240220449864864,-0.5966514348983765,0.8023867607116699,0.0024999999441206455,0.0,0.0,0.0,0.0024999999441206455,0.0,0.0,0.0,0.0024999999441206455,0.0,0.0,0.0,0.019999999552965164,0.0,0.0,0.0,0.019999999552965164,0.0,0.0,0.0,0.019999999552965164,-0.06763619929552078,0.30526071786880493,9.776124000549316,0.03999999910593033,0.0,0.0,0.0,0.03999999910593033,0.0,0.0,0.0,0.03999999910593033
1778815187701801870,266117,1778815187683148056,imu_link,0.012821597047150135,-0.004987247288227081,-0.5966426730155945,0.8023837804794312,0.0024999999441206455,0.0,0.0,0.0,0.0024999999441206455,0.0,0.0,0.0,0.0024999999441206455,0.0,0.0,0.0,0.019999999552965164,0.0,0.0,0.0,0.019999999552965164,0.0,0.0,0.0,0.019999999552965164,-0.050876785069704056,0.3196259140968323,9.753378868103027,0.03999999910593033,0.0,0.0,0.0,0.03999999910593033,0.0,0.0,0.0,0.03999999910593033
1778815187710565069,266118,1778815187688148056,imu_link,0.012821597047150135,-0.004987247288227081,-0.5966426730155945,0.8023837804794312,0.0024999999441206455,0.0,0.0,0.0,0.0024999999441206455,0.0,0.0,0.0,0.0024999999441206455,0.0,0.0,0.0,0.019999999552965164,0.0,0.0,0.0,0.019999999552965164,0.0,0.0,0.0,0.019999999552965164,-0.050876785069704056,0.3196259140968323,9.753378868103027,0.03999999910593033,0.0,0.0,0.0,0.03999999910593033,0.0,0.0,0.0,0.03999999910593033
1778815187715718084,266119,1778815187693148056,imu_link,0.01351210754364729,-0.00526673486456275,-0.5966362953186035,0.8023754358291626,0.0024999999441206455,0.0,0.0,0.0,0.0024999999441206455,0.0,0.0,0.0,0.0024999999441206455,0.0,0.0,0.0,0.019999999552965164,0.0,0.0,0.0,0.019999999552965164,0.0,0.0,0.0,0.019999999552965164,-0.08499415963888168,0.31184476613998413,9.735422134399414,0.03999999910593033,0.0,0.0,0.0,0.03999999910593033,0.0,0.0,0.0,0.03999999910593033
1778815187721550583,266120,1778815187698148056,imu_link,0.014205517247319221,-0.005529389716684818,-0.5966297388076782,0.8023664951324463,0.0024999999441206455,0.0,0.0,0.0,0.0024999999441206455,0.0,0.0,0.0,0.0024999999441206455,0.0,0.0,0.0,0.019999999552965164,0.0,0.0,0.0,0.019999999552965164,0.0,0.0,0.0,0.019999999552965164,-0.08918400853872299,0.3232172131538391,9.73781681060791,0.03999999910593033,0.0,0.0,0.0,0.03999999910593033,0.0,0.0,0.0,0.03999999910593033
1778815187728725590,266121,1778815187703148056,imu_link,0.014205517247319221,-0.005529389716684818,-0.5966297388076782,0.8023664951324463,0.0024999999441206455,0.0,0.0,0.0,0.0024999999441206455,0.0,0.0,0.0,0.0024999999441206455,0.0,0.0,0.0,0.019999999552965164,0.0,0.0,0.0,0.019999999552965164,0.0,0.0,0.0,0.019999999552965164,-0.08918400853872299,0.3232172131538391,9.73781681060791,0.03999999910593033,0.0,0.0,0.0,0.03999999910593033,0.0,0.0,0.0,0.03999999910593033
1778815187736444206,266122,1778815187708148056,imu_link,0.014869238249957561,-0.005190690979361534,-0.5966319441795349,0.8023552298545837,0.0024999999441206455,0.0,0.0,0.0,0.0024999999441206455,0.0,0.0,0.0,0.0024999999441206455,0.0,0.0,0.0,0.019999999552965164,0.0,0.0,0.0,0.019999999552965164,0.0,0.0,0.0,0.019999999552965164,-0.09876082092523575,0.2968810200691223,9.7605619430542,0.03999999910593033,0.0,0.0,0.0,0.03999999910593033,0.0,0.0,0.0,0.03999999910593033
1778815187758294663,266123,1778815187717148056,imu_link,0.014865104109048843,-0.006368556059896946,-0.5966137647628784,0.8023602366447449,0.0024999999441206455,0.0,0.0,0.0,0.0024999999441206455,0.0,0.0,0.0,0.0024999999441206455,0.0,0.0,0.0,0.019999999552965164,0.0,0.0,0.0,0.019999999552965164,0.0,0.0,0.0,0.019999999552965164,-0.08319851011037827,0.2998737692832947,9.758766174316406,0.03999999910593033,0.0,0.0,0.0,0.03999999910593033,0.0,0.0,0.0,0.03999999910593033
1778815187782467664,266124,1778815187766148056,imu_link,0.013594137504696846,-0.0021540061570703983,-0.5966790914535522,0.8023566007614136,0.0024999999441206455,0.0,0.0,0.0,0.0024999999441206455,0.0,0.0,0.0,0.0024999999441206455,0.0,0.0,0.0,0.019999999552965164,0.0,0.0,0.0,0.019999999552965164,0.0,0.0,0.0,0.019999999552965164,-0.08080430328845978,0.2968810200691223,9.75278091430664,0.03999999910593033,0.0,0.0,0.0,0.03999999910593033,0.0,0.0,0.0,0.03999999910593033
1778815187787825621,266125,1778815187768148056,imu_link,0.013873842544853687,-0.0027809918392449617,-0.5966694355010986,0.8023568987846375,0.0024999999441206455,0.0,0.0,0.0,0.0024999999441206455,0.0,0.0,0.0,0.0024999999441206455,0.0,0.0,0.0,0.019999999552965164,0.0,0.0,0.0,0.019999999552965164,0.0,0.0,0.0,0.019999999552965164,-0.06823474913835526,0.33698388934135437,9.726444244384766,0.03999999910593033,0.0,0.0,0.0,0.03999999910593033,0.0,0.0,0.0,0.03999999910593033
1778815187794292288,266126,1778815187773148056,imu_link,0.013873842544853687,-0.0027809918392449617,-0.5966694355010986,0.8023568987846375,0.0024999999441206455,0.0,0.0,0.0,0.0024999999441206455,0.0,0.0,0.0,0.0024999999441206455,0.0,0.0,0.0,0.019999999552965164,0.0,0.0,0.0,0.019999999552965164,0.0,0.0,0.0,0.019999999552965164,-0.06823474913835526,0.33698388934135437,9.726444244384766,0.03999999910593033,0.0,0.0,0.0,0.03999999910593033,0.0,0.0,0.0,0.03999999910593033
1778815187801115258,266127,1778815187778148056,imu_link,0.01412936206907034,-0.0034797745756804943,-0.5966588258743286,0.8023577332496643,0.0024999999441206455,0.0,0.0,0.0,0.0024999999441206455,0.0,0.0,0.0,0.0024999999441206455,0.0,0.0,0.0,0.019999999552965164,0.0,0.0,0.0,0.019999999552965164,0.0,0.0,0.0,0.019999999552965164,-0.08738835901021957,0.2950853407382965,9.726444244384766,0.03999999910593033,0.0,0.0,0.0,0.03999999910593033,0.0,0.0,0.0,0.03999999910593033
1778815187806600457,266128,1778815187783148056,imu_link,0.014555634930729866,-0.004086044151335955,-0.5966481566429138,0.8023552894592285,0.0024999999441206455,0.0,0.0,0.0,0.0024999999441206455,0.0,0.0,0.0,0.0024999999441206455,0.0,0.0,0.0,0.019999999552965164,0.0,0.0,0.0,0.019999999552965164,0.0,0.0,0.0,0.019999999552965164,-0.09277531504631042,0.31543606519699097,9.774927139282227,0.03999999910593033,0.0,0.0,0.0,0.03999999910593033,0.0,0.0,0.0,0.03999999910593033
1778815187812459170,266129,1778815187788148056,imu_link,0.014555634930729866,-0.004086044151335955,-0.5966481566429138,0.8023552894592285,0.0024999999441206455,0.0,0.0,0.0,0.0024999999441206455,0.0,0.0,0.0,0.0024999999441206455,0.0,0.0,0.0,0.019999999552965164,0.0,0.0,0.0,0.019999999552965164,0.0,0.0,0.0,0.019999999552965164,-0.09277531504631042,0.31543606519699097,9.774927139282227,0.03999999910593033,0.0,0.0,0.0,0.03999999910593033,0.0,0.0,0.0,0.03999999910593033
1778815187817790566,266130,1778815187793148056,imu_link,0.014714958146214485,-0.004815476015210152,-0.5966367721557617,0.8023566603660583,0.0024999999441206455,0.0,0.0,0.0,0.0024999999441206455,0.0,0.0,0.0,0.0024999999441206455,0.0,0.0,0.0,0.019999999552965164,0.0,0.0,0.0,0.019999999552965164,0.0,0.0,0.0,0.019999999552965164,-0.07900865375995636,0.30526071786880493,9.73661994934082,0.03999999910593033,0.0,0.0,0.0,0.03999999910593033,0.0,0.0,0.0,0.03999999910593033
1778815187842255844,266131,1778815187802148056,imu_link,0.014821852557361126,-0.005980632733553648,-0.5966187715530396,0.8023602962493896,0.0024999999441206455,0.0,0.0,0.0,0.0024999999441206455,0.0,0.0,0.0,0.0024999999441206455,0.0,0.0,0.0,0.019999999552965164,0.0,0.0,0.0,0.019999999552965164,0.0,0.0,0.0,0.019999999552965164,-0.07003039866685867,0.30945056676864624,9.746196746826172,0.03999999910593033,0.0,0.0,0.0,0.03999999910593033,0.0,0.0,0.0,0.03999999910593033
1778815187866269439,266132,1778815187851148056,imu_link,0.019124601036310196,-0.006930922623723745,-0.5965808629989624,0.8022897839546204,0.0024999999441206455,0.0,0.0,0.0,0.0024999999441206455,0.0,0.0,0.0,0.0024999999441206455,0.0,0.0,0.0,0.019999999552965164,0.0,0.0,0.0,0.019999999552965164,0.0,0.0,0.0,0.019999999552965164,-0.08259996026754379,0.3100491166114807,9.764152526855469,0.03999999910593033,0.0,0.0,0.0,0.03999999910593033,0.0,0.0,0.0,0.03999999910593033
1778815187871792896,266133,1778815187853148056,imu_link,0.018504610285162926,-0.0066354041919112206,-0.5965901017189026,0.8022999167442322,0.0024999999441206455,0.0,0.0,0.0,0.0024999999441206455,0.0,0.0,0.0,0.0024999999441206455,0.0,0.0,0.0,0.019999999552965164,0.0,0.0,0.0,0.019999999552965164,0.0,0.0,0.0,0.019999999552965164,-0.09876082092523575,0.30226796865463257,9.742605209350586,0.03999999910593033,0.0,0.0,0.0,0.03999999910593033,0.0,0.0,0.0,0.03999999910593033
1778815187877543998,266134,1778815187858148056,imu_link,0.018504610285162926,-0.0066354041919112206,-0.5965901017189026,0.8022999167442322,0.0024999999441206455,0.0,0.0,0.0,0.0024999999441206455,0.0,0.0,0.0,0.0024999999441206455,0.0,0.0,0.0,0.019999999552965164,0.0,0.0,0.0,0.019999999552965164,0.0,0.0,0.0,0.019999999552965164,-0.09876082092523575,0.30226796865463257,9.742605209350586,0.03999999910593033,0.0,0.0,0.0,0.03999999910593033,0.0,0.0,0.0,0.03999999910593033
1778815187882550188,266135,1778815187863148056,imu_link,0.017805777490139008,-0.006382143124938011,-0.5965986847877502,0.8023114204406738,0.0024999999441206455,0.0,0.0,0.0,0.0024999999441206455,0.0,0.0,0.0,0.0024999999441206455,0.0,0.0,0.0,0.019999999552965164,0.0,0.0,0.0,0.019999999552965164,0.0,0.0,0.0,0.019999999552965164,-0.08798690885305405,0.2885012924671173,9.764152526855469,0.03999999910593033,0.0,0.0,0.0,0.03999999910593033,0.0,0.0,0.0,0.03999999910593033
1778815187888019270,266136,1778815187868148056,imu_link,0.017067136242985725,-0.0063206166960299015,-0.5966036319732666,0.802324116230011,0.0024999999441206455,0.0,0.0,0.0,0.0024999999441206455,0.0,0.0,0.0,0.0024999999441206455,0.0,0.0,0.0,0.019999999552965164,0.0,0.0,0.0,0.019999999552965164,0.0,0.0,0.0,0.019999999552965164,-0.07841010391712189,0.3064578175544739,9.749189376831055,0.03999999910593033,0.0,0.0,0.0,0.03999999910593033,0.0,0.0,0.0,0.03999999910593033
1778815187896137281,266137,1778815187873148056,imu_link,0.017067136242985725,-0.0063206166960299015,-0.5966036319732666,0.802324116230011,0.0024999999441206455,0.0,0.0,0.0,0.0024999999441206455,0.0,0.0,0.0,0.0024999999441206455,0.0,0.0,0.0,0.019999999552965164,0.0,0.0,0.0,0.019999999552965164,0.0,0.0,0.0,0.019999999552965164,-0.07841010391712189,0.3064578175544739,9.749189376831055,0.03999999910593033,0.0,0.0,0.0,0.03999999910593033,0.0,0.0,0.0,0.03999999910593033
1778815187902035076,266138,1778815187878148056,imu_link,0.016329536214470863,-0.006402246654033661,-0.5966058969497681,0.8023372888565063,0.0024999999441206455,0.0,0.0,0.0,0.0024999999441206455,0.0,0.0,0.0,0.0024999999441206455,0.0,0.0,0.0,0.019999999552965164,0.0,0.0,0.0,0.019999999552965164,0.0,0.0,0.0,0.019999999552965164,-0.0867898091673851,0.3274070918560028,9.77253246307373,0.03999999910593033,0.0,0.0,0.0,0.03999999910593033,0.0,0.0,0.0,0.03999999910593033
1778815187923968096,266139,1778815187887148056,imu_link,0.015166900120675564,-0.006282282527536154,-0.5966128706932068,0.8023558855056763,0.0024999999441206455,0.0,0.0,0.0,0.0024999999441206455,0.0,0.0,0.0,0.0024999999441206455,0.0,0.0,0.0,0.019999999552965164,0.0,0.0,0.0,0.019999999552965164,0.0,0.0,0.0,0.019999999552965164,-0.06823474913835526,0.29388824105262756,9.75517463684082,0.03999999910593033,0.0,0.0,0.0,0.03999999910593033,0.0,0.0,0.0,0.03999999910593033
1778815187947704351,266140,1778815187938148056,imu_link,0.01888897642493248,-0.003557757707312703,-0.5966349840164185,0.802277147769928,0.0024999999441206455,0.0,0.0,0.0,0.0024999999441206455,0.0,0.0,0.0,0.0024999999441206455,0.0,0.0,0.0,0.019999999552965164,0.0,0.0,0.0,0.019999999552965164,0.0,0.0,0.0,0.019999999552965164,-0.10175357013940811,0.31783026456832886,9.749787330627441,0.03999999910593033,0.0,0.0,0.0,0.03999999910593033,0.0,0.0,0.0,0.03999999910593033
1778815187953114965,266141,1778815187940148056,imu_link,0.018283875659108162,-0.0038832337595522404,-0.5966343283653259,0.8022902011871338,0.0024999999441206455,0.0,0.0,0.0,0.0024999999441206455,0.0,0.0,0.0,0.0024999999441206455,0.0,0.0,0.0,0.019999999552965164,0.0,0.0,0.0,0.019999999552965164,0.0,0.0,0.0,0.019999999552965164,-0.09038111567497253,0.30226796865463257,9.739612579345703,0.03999999910593033,0.0,0.0,0.0,0.03999999910593033,0.0,0.0,0.0,0.03999999910593033
1778815187959112261,266142,1778815187945148056,imu_link,0.018283875659108162,-0.0038832337595522404,-0.5966343283653259,0.8022902011871338,0.0024999999441206455,0.0,0.0,0.0,0.0024999999441206455,0.0,0.0,0.0,0.0024999999441206455,0.0,0.0,0.0,0.019999999552965164,0.0,0.0,0.0,0.019999999552965164,0.0,0.0,0.0,0.019999999552965164,-0.09038111567497253,0.30226796865463257,9.739612579345703,0.03999999910593033,0.0,0.0,0.0,0.03999999910593033,0.0,0.0,0.0,0.03999999910593033
1778815187967569408,266143,1778815187950148056,imu_link,0.01769382134079933,-0.004337343852967024,-0.5966309905052185,0.8023034334182739,0.0024999999441206455,0.0,0.0,0.0,0.0024999999441206455,0.0,0.0,0.0,0.0024999999441206455,0.0,0.0,0.0,0.019999999552965164,0.0,0.0,0.0,0.019999999552965164,0.0,0.0,0.0,0.019999999552965164,-0.09038111567497253,0.314238965511322,9.758167266845703,0.03999999910593033,0.0,0.0,0.0,0.03999999910593033,0.0,0.0,0.0,0.03999999910593033
1778815187972815755,266144,1778815187955148056,imu_link,0.017122868448495865,-0.00481204129755497,-0.5966269969940186,0.8023163080215454,0.0024999999441206455,0.0,0.0,0.0,0.0024999999441206455,0.0,0.0,0.0,0.0024999999441206455,0.0,0.0,0.0,0.019999999552965164,0.0,0.0,0.0,0.019999999552965164,0.0,0.0,0.0,0.019999999552965164,-0.07900865375995636,0.31364041566848755,9.765948295593262,0.03999999910593033,0.0,0.0,0.0,0.03999999910593033,0.0,0.0,0.0,0.03999999910593033
1778815187978223950,266145,1778815187960148056,imu_link,0.017122868448495865,-0.00481204129755497,-0.5966269969940186,0.8023163080215454,0.0024999999441206455,0.0,0.0,0.0,0.0024999999441206455,0.0,0.0,0.0,0.0024999999441206455,0.0,0.0,0.0,0.019999999552965164,0.0,0.0,0.0,0.019999999552965164,0.0,0.0,0.0,0.019999999552965164,-0.07900865375995636,0.31364041566848755,9.765948295593262,0.03999999910593033,0.0,0.0,0.0,0.03999999910593033,0.0,0.0,0.0,0.03999999910593033
1778815187984294657,266146,1778815187965148056,imu_link,0.01657569780945778,-0.005319208838045597,-0.5966218113899231,0.8023282885551453,0.0024999999441206455,0.0,0.0,0.0,0.0024999999441206455,0.0,0.0,0.0,0.0024999999441206455,0.0,0.0,0.0,0.019999999552965164,0.0,0.0,0.0,0.019999999552965164,0.0,0.0,0.0,0.019999999552965164,-0.0694318488240242,0.314238965511322,9.7605619430542,0.03999999910593033,0.0,0.0,0.0,0.03999999910593033,0.0,0.0,0.0,0.03999999910593033
1778815188009163522,266147,1778815187974148056,imu_link,0.015696845948696136,-0.006090888287872076,-0.5966136455535889,0.8023465871810913,0.0024999999441206455,0.0,0.0,0.0,0.0024999999441206455,0.0,0.0,0.0,0.0024999999441206455,0.0,0.0,0.0,0.019999999552965164,0.0,0.0,0.0,0.019999999552965164,0.0,0.0,0.0,0.019999999552965164,-0.07302314788103104,0.31364041566848755,9.75278091430664,0.03999999910593033,0.0,0.0,0.0,0.03999999910593033,0.0,0.0,0.0,0.03999999910593033
1778815188014680382,266148,1778815187979148056,imu_link,0.015696845948696136,-0.006090888287872076,-0.5966136455535889,0.8023465871810913,0.0024999999441206455,0.0,0.0,0.0,0.0024999999441206455,0.0,0.0,0.0,0.0024999999441206455,0.0,0.0,0.0,0.019999999552965164,0.0,0.0,0.0,0.019999999552965164,0.0,0.0,0.0,0.019999999552965164,-0.07302314788103104,0.31364041566848755,9.75278091430664,0.03999999910593033,0.0,0.0,0.0,0.03999999910593033,0.0,0.0,0.0,0.03999999910593033
1778815188037604454,266149,1778815188026148056,imu_link,0.01130648422986269,-0.007779465522617102,-0.5965993404388428,0.8024166226387024,0.0024999999441206455,0.0,0.0,0.0,0.0024999999441206455,0.0,0.0,0.0,0.0024999999441206455,0.0,0.0,0.0,0.019999999552965164,0.0,0.0,0.0,0.019999999552965164,0.0,0.0,0.0,0.019999999552965164,-0.061052143573760986,0.30047231912612915,9.768940925598145,0.03999999910593033,0.0,0.0,0.0,0.03999999910593033,0.0,0.0,0.0,0.03999999910593033
1778815188043978471,266150,1778815188028148056,imu_link,0.011943021789193153,-0.007520373910665512,-0.5966023802757263,0.8024075031280518,0.0024999999441206455,0.0,0.0,0.0,0.0024999999441206455,0.0,0.0,0.0,0.0024999999441206455,0.0,0.0,0.0,0.019999999552965164,0.0,0.0,0.0,0.019999999552965164,0.0,0.0,0.0,0.019999999552965164,-0.07721300423145294,0.3082534670829773,9.744998931884766,0.03999999910593033,0.0,0.0,0.0,0.03999999910593033,0.0,0.0,0.0,0.03999999910593033
1778815188049199372,266151,1778815188033148056,imu_link,0.011943021789193153,-0.007520373910665512,-0.5966023802757263,0.8024075031280518,0.0024999999441206455,0.0,0.0,0.0,0.0024999999441206455,0.0,0.0,0.0,0.0024999999441206455,0.0,0.0,0.0,0.019999999552965164,0.0,0.0,0.0,0.019999999552965164,0.0,0.0,0.0,0.019999999552965164,-0.07721300423145294,0.3082534670829773,9.744998931884766,0.03999999910593033,0.0,0.0,0.0,0.03999999910593033,0.0,0.0,0.0,0.03999999910593033
1778815188055283712,266152,1778815188038148056,imu_link,0.012607668526470661,-0.007178892381489277,-0.5966063141822815,0.8023975491523743,0.0024999999441206455,0.0,0.0,0.0,0.0024999999441206455,0.0,0.0,0.0,0.0024999999441206455,0.0,0.0,0.0,0.019999999552965164,0.0,0.0,0.0,0.019999999552965164,0.0,0.0,0.0,0.019999999552965164,-0.08140285313129425,0.304063618183136,9.750985145568848,0.03999999910593033,0.0,0.0,0.0,0.03999999910593033,0.0,0.0,0.0,0.03999999910593033
1778815188064717457,266153,1778815188043148056,imu_link,0.01329641044139862,-0.0069047752767801285,-0.5966089367866516,0.802386999130249,0.0024999999441206455,0.0,0.0,0.0,0.0024999999441206455,0.0,0.0,0.0,0.0024999999441206455,0.0,0.0,0.0,0.019999999552965164,0.0,0.0,0.0,0.019999999552965164,0.0,0.0,0.0,0.019999999552965164,-0.05446808785200119,0.2932896912097931,9.749189376831055,0.03999999910593033,0.0,0.0,0.0,0.03999999910593033,0.0,0.0,0.0,0.03999999910593033
1778815188071326689,266154,1778815188048148056,imu_link,0.01329641044139862,-0.0069047752767801285,-0.5966089367866516,0.802386999130249,0.0024999999441206455,0.0,0.0,0.0,0.0024999999441206455,0.0,0.0,0.0,0.0024999999441206455,0.0,0.0,0.0,0.019999999552965164,0.0,0.0,0.0,0.019999999552965164,0.0,0.0,0.0,0.019999999552965164,-0.05446808785200119,0.2932896912097931,9.749189376831055,0.03999999910593033,0.0,0.0,0.0,0.03999999910593033,0.0,0.0,0.0,0.03999999910593033
1778815188077174311,266155,1778815188053148056,imu_link,0.013960282318294048,-0.0065763117745518684,-0.5966119766235352,0.8023760914802551,0.0024999999441206455,0.0,0.0,0.0,0.0024999999441206455,0.0,0.0,0.0,0.0024999999441206455,0.0,0.0,0.0,0.019999999552965164,0.0,0.0,0.0,0.019999999552965164,0.0,0.0,0.0,0.019999999552965164,-0.08738835901021957,0.30885201692581177,9.733627319335938,0.03999999910593033,0.0,0.0,0.0,0.03999999910593033,0.0,0.0,0.0,0.03999999910593033
1778815188102056228,266156,1778815188062148056,imu_link,0.015045489184558392,-0.007014548871666193,-0.596601665019989,0.8023605346679688,0.0024999999441206455,0.0,0.0,0.0,0.0024999999441206455,0.0,0.0,0.0,0.0024999999441206455,0.0,0.0,0.0,0.019999999552965164,0.0,0.0,0.0,0.019999999552965164,0.0,0.0,0.0,0.019999999552965164,-0.0628477931022644,0.3076549172401428,9.741408348083496,0.03999999910593033,0.0,0.0,0.0,0.03999999910593033,0.0,0.0,0.0,0.03999999910593033
1778815188123483235,266157,1778815188113148056,imu_link,0.012679707258939743,-0.003058231668546796,-0.5966675877571106,0.8023772835731506,0.0024999999441206455,0.0,0.0,0.0,0.0024999999441206455,0.0,0.0,0.0,0.0024999999441206455,0.0,0.0,0.0,0.019999999552965164,0.0,0.0,0.0,0.019999999552965164,0.0,0.0,0.0,0.019999999552965164,-0.07062894850969315,0.3058592677116394,9.780912399291992,0.03999999910593033,0.0,0.0,0.0,0.03999999910593033,0.0,0.0,0.0,0.03999999910593033
1778815188131247111,266158,1778815188115148056,imu_link,0.012915781699120998,-0.0037040994502604008,-0.5966584086418152,0.8023775219917297,0.0024999999441206455,0.0,0.0,0.0,0.0024999999441206455,0.0,0.0,0.0,0.0024999999441206455,0.0,0.0,0.0,0.019999999552965164,0.0,0.0,0.0,0.019999999552965164,0.0,0.0,0.0,0.019999999552965164,-0.05626373738050461,0.2992752194404602,9.725247383117676,0.03999999910593033,0.0,0.0,0.0,0.03999999910593033,0.0,0.0,0.0,0.03999999910593033
1778815188136928048,266159,1778815188120148056,imu_link,0.012915781699120998,-0.0037040994502604008,-0.5966584086418152,0.8023775219917297,0.0024999999441206455,0.0,0.0,0.0,0.0024999999441206455,0.0,0.0,0.0,0.0024999999441206455,0.0,0.0,0.0,0.019999999552965164,0.0,0.0,0.0,0.019999999552965164,0.0,0.0,0.0,0.019999999552965164,-0.05626373738050461,0.2992752194404602,9.725247383117676,0.03999999910593033,0.0,0.0,0.0,0.03999999910593033,0.0,0.0,0.0,0.03999999910593033
1778815188142532614,266160,1778815188125148056,imu_link,0.0133511982858181,-0.004309538286179304,-0.5966485142707825,0.8023746609687805,0.0024999999441206455,0.0,0.0,0.0,0.0024999999441206455,0.0,0.0,0.0,0.0024999999441206455,0.0,0.0,0.0,0.019999999552965164,0.0,0.0,0.0,0.019999999552965164,0.0,0.0,0.0,0.019999999552965164,-0.07302314788103104,0.3100491166114807,9.822212219238281,0.03999999910593033,0.0,0.0,0.0,0.03999999910593033,0.0,0.0,0.0,0.03999999910593033
1778815188148048426,266161,1778815188130148056,imu_link,0.01355243381112814,-0.005021262913942337,-0.5966379642486572,0.8023749589920044,0.0024999999441206455,0.0,0.0,0.0,0.0024999999441206455,0.0,0.0,0.0,0.0024999999441206455,0.0,0.0,0.0,0.019999999552965164,0.0,0.0,0.0,0.019999999552965164,0.0,0.0,0.0,0.019999999552965164,-0.06165069341659546,0.2932896912097931,9.749189376831055,0.03999999910593033,0.0,0.0,0.0,0.03999999910593033,0.0,0.0,0.0,0.03999999910593033
1778815188153766961,266162,1778815188135148056,imu_link,0.01355243381112814,-0.005021262913942337,-0.5966379642486572,0.8023749589920044,0.0024999999441206455,0.0,0.0,0.0,0.0024999999441206455,0.0,0.0,0.0,0.0024999999441206455,0.0,0.0,0.0,0.019999999552965164,0.0,0.0,0.0,0.019999999552965164,0.0,0.0,0.0,0.019999999552965164,-0.06165069341659546,0.2932896912097931,9.749189376831055,0.03999999910593033,0.0,0.0,0.0,0.03999999910593033,0.0,0.0,0.0,0.03999999910593033
1778815188161200268,266163,1778815188140148056,imu_link,0.013836433179676533,-0.005708129610866308,-0.5966271758079529,0.8023736476898193,0.0024999999441206455,0.0,0.0,0.0,0.0024999999441206455,0.0,0.0,0.0,0.0024999999441206455,0.0,0.0,0.0,0.019999999552965164,0.0,0.0,0.0,0.019999999552965164,0.0,0.0,0.0,0.019999999552965164,-0.06643909960985184,0.2932896912097931,9.785700798034668,0.03999999910593033,0.0,0.0,0.0,0.03999999910593033,0.0,0.0,0.0,0.03999999910593033
1778815188183766780,266164,1778815188149148056,imu_link,0.014933420345187187,-0.006115238182246685,-0.5966168642044067,0.8023586869239807,0.0024999999441206455,0.0,0.0,0.0,0.0024999999441206455,0.0,0.0,0.0,0.0024999999441206455,0.0,0.0,0.0,0.019999999552965164,0.0,0.0,0.0,0.019999999552965164,0.0,0.0,0.0,0.019999999552965164,-0.07481880486011505,0.29388824105262756,9.79408073425293,0.03999999910593033,0.0,0.0,0.0,0.03999999910593033,0.0,0.0,0.0,0.03999999910593033
1778815188207791658,266165,1778815188201148056,imu_link,0.01543128676712513,-0.0014315327862277627,-0.5966814160346985,0.8023231625556946,0.0024999999441206455,0.0,0.0,0.0,0.0024999999441206455,0.0,0.0,0.0,0.0024999999441206455,0.0,0.0,0.0,0.019999999552965164,0.0,0.0,0.0,0.019999999552965164,0.0,0.0,0.0,0.019999999552965164,-0.08499415963888168,0.2992752194404602,9.70549488067627,0.03999999910593033,0.0,0.0,0.0,0.03999999910593033,0.0,0.0,0.0,0.03999999910593033
1778815188213365051,266166,1778815188203148056,imu_link,0.015279613435268402,-0.0021029277704656124,-0.5966736674308777,0.8023304343223572,0.0024999999441206455,0.0,0.0,0.0,0.0024999999441206455,0.0,0.0,0.0,0.0024999999441206455,0.0,0.0,0.0,0.019999999552965164,0.0,0.0,0.0,0.019999999552965164,0.0,0.0,0.0,0.019999999552965164,-0.07781155407428741,0.29448679089546204,9.782109260559082,0.03999999910593033,0.0,0.0,0.0,0.03999999910593033,0.0,0.0,0.0,0.03999999910593033
1778815188219405041,266167,1778815188208148056,imu_link,0.015279613435268402,-0.0021029277704656124,-0.5966736674308777,0.8023304343223572,0.0024999999441206455,0.0,0.0,0.0,0.0024999999441206455,0.0,0.0,0.0,0.0024999999441206455,0.0,0.0,0.0,0.019999999552965164,0.0,0.0,0.0,0.019999999552965164,0.0,0.0,0.0,0.019999999552965164,-0.07781155407428741,0.29448679089546204,9.782109260559082,0.03999999910593033,0.0,0.0,0.0,0.03999999910593033,0.0,0.0,0.0,0.03999999910593033
1778815188225041559,266168,1778815188213148056,imu_link,0.015227148309350014,-0.002848390955477953,-0.5966638326644897,0.8023364543914795,0.0024999999441206455,0.0,0.0,0.0,0.0024999999441206455,0.0,0.0,0.0,0.0024999999441206455,0.0,0.0,0.0,0.019999999552965164,0.0,0.0,0.0,0.019999999552965164,0.0,0.0,0.0,0.019999999552965164,-0.05027823522686958,0.32441431283950806,9.75517463684082,0.03999999910593033,0.0,0.0,0.0,0.03999999910593033,0.0,0.0,0.0,0.03999999910593033
1778815188233107394,266169,1778815188218148056,imu_link,0.015144508332014084,-0.0035828619729727507,-0.5966539978981018,0.8023423552513123,0.0024999999441206455,0.0,0.0,0.0,0.0024999999441206455,0.0,0.0,0.0,0.0024999999441206455,0.0,0.0,0.0,0.019999999552965164,0.0,0.0,0.0,0.019999999552965164,0.0,0.0,0.0,0.019999999552965164,-0.0454898327589035,0.3214215636253357,9.725845336914062,0.03999999910593033,0.0,0.0,0.0,0.03999999910593033,0.0,0.0,0.0,0.03999999910593033
1778815188239613276,266170,1778815188223148056,imu_link,0.015144508332014084,-0.0035828619729727507,-0.5966539978981018,0.8023423552513123,0.0024999999441206455,0.0,0.0,0.0,0.0024999999441206455,0.0,0.0,0.0,0.0024999999441206455,0.0,0.0,0.0,0.019999999552965164,0.0,0.0,0.0,0.019999999552965164,0.0,0.0,0.0,0.019999999552965164,-0.0454898327589035,0.3214215636253357,9.725845336914062,0.03999999910593033,0.0,0.0,0.0,0.03999999910593033,0.0,0.0,0.0,0.03999999910593033
1778815188247381961,266171,1778815188228148056,imu_link,0.015158675611019135,-0.004325808957219124,-0.5966430902481079,0.8023464679718018,0.0024999999441206455,0.0,0.0,0.0,0.0024999999441206455,0.0,0.0,0.0,0.0024999999441206455,0.0,0.0,0.0,0.019999999552965164,0.0,0.0,0.0,0.019999999552965164,0.0,0.0,0.0,0.019999999552965164,-0.06643909960985184,0.3208230137825012,9.761758804321289,0.03999999910593033,0.0,0.0,0.0,0.03999999910593033,0.0,0.0,0.0,0.03999999910593033
1778815188273113526,266172,1778815188237148056,imu_link,0.015627892687916756,-0.005399868357926607,-0.5966242551803589,0.8023450374603271,0.0024999999441206455,0.0,0.0,0.0,0.0024999999441206455,0.0,0.0,0.0,0.0024999999441206455,0.0,0.0,0.0,0.019999999552965164,0.0,0.0,0.0,0.019999999552965164,0.0,0.0,0.0,0.019999999552965164,-0.07900865375995636,0.33937808871269226,9.744400978088379,0.03999999910593033,0.0,0.0,0.0,0.03999999910593033,0.0,0.0,0.0,0.03999999910593033
1778815188278590719,266173,1778815188242148056,imu_link,0.015627892687916756,-0.005399868357926607,-0.5966242551803589,0.8023450374603271,0.0024999999441206455,0.0,0.0,0.0,0.0024999999441206455,0.0,0.0,0.0,0.0024999999441206455,0.0,0.0,0.0,0.019999999552965164,0.0,0.0,0.0,0.019999999552965164,0.0,0.0,0.0,0.019999999552965164,-0.07900865375995636,0.33937808871269226,9.744400978088379,0.03999999910593033,0.0,0.0,0.0,0.03999999910593033,0.0,0.0,0.0,0.03999999910593033
1778815188302585737,266174,1778815188305065906,imu_link,0.018602147698402405,-0.009305106475949287,-0.596540629863739,0.8023079633712769,0.0024999999441206455,0.0,0.0,0.0,0.0024999999441206455,0.0,0.0,0.0,0.0024999999441206455,0.0,0.0,0.0,0.019999999552965164,0.0,0.0,0.0,0.019999999552965164,0.0,0.0,0.0,0.019999999552965164,-0.09457096457481384,0.3166331648826599,9.74021053314209,0.03999999910593033,0.0,0.0,0.0,0.03999999910593033,0.0,0.0,0.0,0.03999999910593033
1778815188308698811,266175,1778815188307065906,imu_link,0.01795656979084015,-0.00906815379858017,-0.5965476632118225,0.802320122718811,0.0024999999441206455,0.0,0.0,0.0,0.0024999999441206455,0.0,0.0,0.0,0.0024999999441206455,0.0,0.0,0.0,0.019999999552965164,0.0,0.0,0.0,0.019999999552965164,0.0,0.0,0.0,0.019999999552965164,-0.046088382601737976,0.31603461503982544,9.764751434326172,0.03999999910593033,0.0,0.0,0.0,0.03999999910593033,0.0,0.0,0.0,0.03999999910593033
1778815188313816746,266176,1778815188312065906,imu_link,0.01795656979084015,-0.00906815379858017,-0.5965476632118225,0.802320122718811,0.0024999999441206455,0.0,0.0,0.0,0.0024999999441206455,0.0,0.0,0.0,0.0024999999441206455,0.0,0.0,0.0,0.019999999552965164,0.0,0.0,0.0,0.019999999552965164,0.0,0.0,0.0,0.019999999552965164,-0.046088382601737976,0.31603461503982544,9.764751434326172,0.03999999910593033,0.0,0.0,0.0,0.03999999910593033,0.0,0.0,0.0,0.03999999910593033
1778815188319234168,266177,1778815188317065906,imu_link,0.01737917773425579,-0.008596413768827915,-0.5965588092803955,0.8023297190666199,0.0024999999441206455,0.0,0.0,0.0,0.0024999999441206455,0.0,0.0,0.0,0.0024999999441206455,0.0,0.0,0.0,0.019999999552965164,0.0,0.0,0.0,0.019999999552965164,0.0,0.0,0.0,0.019999999552965164,-0.07003039866685867,0.32202011346817017,9.752182006835938,0.03999999910593033,0.0,0.0,0.0,0.03999999910593033,0.0,0.0,0.0,0.03999999910593033
1778815188325824915,266178,1778815188322065906,imu_link,0.01692764274775982,-0.008012240752577782,-0.5965713262557983,0.8023360371589661,0.0024999999441206455,0.0,0.0,0.0,0.0024999999441206455,0.0,0.0,0.0,0.0024999999441206455,0.0,0.0,0.0,0.019999999552965164,0.0,0.0,0.0,0.019999999552965164,0.0,0.0,0.0,0.019999999552965164,-0.08858545869588852,0.2968810200691223,9.73661994934082,0.03999999910593033,0.0,0.0,0.0,0.03999999910593033,0.0,0.0,0.0,0.03999999910593033
1778815188333744776,266179,1778815188327065906,imu_link,0.01692764274775982,-0.008012240752577782,-0.5965713262557983,0.8023360371589661,0.0024999999441206455,0.0,0.0,0.0,0.0024999999441206455,0.0,0.0,0.0,0.0024999999441206455,0.0,0.0,0.0,0.019999999552965164,0.0,0.0,0.0,0.019999999552965164,0.0,0.0,0.0,0.019999999552965164,-0.08858545869588852,0.2968810200691223,9.73661994934082,0.03999999910593033,0.0,0.0,0.0,0.03999999910593033,0.0,0.0,0.0,0.03999999910593033
1778815188340601643,266180,1778815188332065906,imu_link,0.016406279057264328,-0.00748254731297493,-0.59658282995224,0.8023434281349182,0.0024999999441206455,0.0,0.0,0.0,0.0024999999441206455,0.0,0.0,0.0,0.0024999999441206455,0.0,0.0,0.0,0.019999999552965164,0.0,0.0,0.0,0.019999999552965164,0.0,0.0,0.0,0.019999999552965164,-0.07721300423145294,0.32261866331100464,9.75517463684082,0.03999999910593033,0.0,0.0,0.0,0.03999999910593033,0.0,0.0,0.0,0.03999999910593033
1778815188364457926,266181,1778815188341065906,imu_link,0.015463531017303467,-0.006787547376006842,-0.5965983271598816,0.8023569583892822,0.0024999999441206455,0.0,0.0,0.0,0.0024999999441206455,0.0,0.0,0.0,0.0024999999441206455,0.0,0.0,0.0,0.019999999552965164,0.0,0.0,0.0,0.019999999552965164,0.0,0.0,0.0,0.019999999552965164,-0.07362169772386551,0.325611412525177,9.731232643127441,0.03999999910593033,0.0,0.0,0.0,0.03999999910593033,0.0,0.0,0.0,0.03999999910593033
1778815188385352198,266182,1778815188384065906,imu_link,0.012916209176182747,-0.0039575593546032906,-0.596650242805481,0.8023824095726013,0.0024999999441206455,0.0,0.0,0.0,0.0024999999441206455,0.0,0.0,0.0,0.0024999999441206455,0.0,0.0,0.0,0.019999999552965164,0.0,0.0,0.0,0.019999999552965164,0.0,0.0,0.0,0.019999999552965164,-0.07661445438861847,0.30885201692581177,9.7791166305542,0.03999999910593033,0.0,0.0,0.0,0.03999999910593033,0.0,0.0,0.0,0.03999999910593033
1778815188390758677,266183,1778815188386065906,imu_link,0.013527560979127884,-0.0042757005430758,-0.5966432690620422,0.802375853061676,0.0024999999441206455,0.0,0.0,0.0,0.0024999999441206455,0.0,0.0,0.0,0.0024999999441206455,0.0,0.0,0.0,0.019999999552965164,0.0,0.0,0.0,0.019999999552965164,0.0,0.0,0.0,0.019999999552965164,-0.10235211998224258,0.3345896899700165,9.762357711791992,0.03999999910593033,0.0,0.0,0.0,0.03999999910593033,0.0,0.0,0.0,0.03999999910593033
1778815188399562000,266184,1778815188391065906,imu_link,0.013527560979127884,-0.0042757005430758,-0.5966432690620422,0.802375853061676,0.0024999999441206455,0.0,0.0,0.0,0.0024999999441206455,0.0,0.0,0.0,0.0024999999441206455,0.0,0.0,0.0,0.019999999552965164,0.0,0.0,0.0,0.019999999552965164,0.0,0.0,0.0,0.019999999552965164,-0.10235211998224258,0.3345896899700165,9.762357711791992,0.03999999910593033,0.0,0.0,0.0,0.03999999910593033,0.0,0.0,0.0,0.03999999910593033
1778815188404970102,266185,1778815188396065906,imu_link,0.014115558937191963,-0.004733734764158726,-0.5966342687606812,0.8023698925971985,0.0024999999441206455,0.0,0.0,0.0,0.0024999999441206455,0.0,0.0,0.0,0.0024999999441206455,0.0,0.0,0.0,0.019999999552965164,0.0,0.0,0.0,0.019999999552965164,0.0,0.0,0.0,0.019999999552965164,-0.08858545869588852,0.3471592366695404,9.746794700622559,0.03999999910593033,0.0,0.0,0.0,0.03999999910593033,0.0,0.0,0.0,0.03999999910593033
1778815188410269738,266186,1778815188401065906,imu_link,0.014294233173131943,-0.005451439879834652,-0.5966230630874634,0.8023704290390015,0.0024999999441206455,0.0,0.0,0.0,0.0024999999441206455,0.0,0.0,0.0,0.0024999999441206455,0.0,0.0,0.0,0.019999999552965164,0.0,0.0,0.0,0.019999999552965164,0.0,0.0,0.0,0.019999999552965164,-0.06224924325942993,0.3106476664543152,9.763554573059082,0.03999999910593033,0.0,0.0,0.0,0.03999999910593033,0.0,0.0,0.0,0.03999999910593033
1778815188416504904,266187,1778815188406065906,imu_link,0.014294233173131943,-0.005451439879834652,-0.5966230630874634,0.8023704290390015,0.0024999999441206455,0.0,0.0,0.0,0.0024999999441206455,0.0,0.0,0.0,0.0024999999441206455,0.0,0.0,0.0,0.019999999552965164,0.0,0.0,0.0,0.019999999552965164,0.0,0.0,0.0,0.019999999552965164,-0.06224924325942993,0.3106476664543152,9.763554573059082,0.03999999910593033,0.0,0.0,0.0,0.03999999910593033,0.0,0.0,0.0,0.03999999910593033
1778815188424569570,266188,1778815188411065906,imu_link,0.014451609924435616,-0.006177578587085009,-0.596611499786377,0.8023708462715149,0.0024999999441206455,0.0,0.0,0.0,0.0024999999441206455,0.0,0.0,0.0,0.0024999999441206455,0.0,0.0,0.0,0.019999999552965164,0.0,0.0,0.0,0.019999999552965164,0.0,0.0,0.0,0.019999999552965164,-0.07781155407428741,0.29209259152412415,9.780313491821289,0.03999999910593033,0.0,0.0,0.0,0.03999999910593033,0.0,0.0,0.0,0.03999999910593033
1778815188464235362,266189,1778815188468065906,imu_link,0.01977935992181301,-0.0048980205319821835,-0.5966025590896606,0.8022726774215698,0.0024999999441206455,0.0,0.0,0.0,0.0024999999441206455,0.0,0.0,0.0,0.0024999999441206455,0.0,0.0,0.0,0.019999999552965164,0.0,0.0,0.0,0.019999999552965164,0.0,0.0,0.0,0.019999999552965164,-0.09217676520347595,0.31543606519699097,9.751583099365234,0.03999999910593033,0.0,0.0,0.0,0.03999999910593033,0.0,0.0,0.0,0.03999999910593033
1778815188470091594,266190,1778815188470065906,imu_link,0.01914091408252716,-0.0051560006104409695,-0.5966026186943054,0.8022865056991577,0.0024999999441206455,0.0,0.0,0.0,0.0024999999441206455,0.0,0.0,0.0,0.0024999999441206455,0.0,0.0,0.0,0.019999999552965164,0.0,0.0,0.0,0.019999999552965164,0.0,0.0,0.0,0.019999999552965164,-0.06883329898118973,0.31543606519699097,9.765350341796875,0.03999999910593033,0.0,0.0,0.0,0.03999999910593033,0.0,0.0,0.0,0.03999999910593033
1778815188475936828,266191,1778815188475065906,imu_link,0.01914091408252716,-0.0051560006104409695,-0.5966026186943054,0.8022865056991577,0.0024999999441206455,0.0,0.0,0.0,0.0024999999441206455,0.0,0.0,0.0,0.0024999999441206455,0.0,0.0,0.0,0.019999999552965164,0.0,0.0,0.0,0.019999999552965164,0.0,0.0,0.0,0.019999999552965164,-0.06883329898118973,0.31543606519699097,9.765350341796875,0.03999999910593033,0.0,0.0,0.0,0.03999999910593033,0.0,0.0,0.0,0.03999999910593033
1778815188481109297,266192,1778815188480065906,imu_link,0.018467886373400688,-0.005477638449519873,-0.5966014862060547,0.8023011088371277,0.0024999999441206455,0.0,0.0,0.0,0.0024999999441206455,0.0,0.0,0.0,0.0024999999441206455,0.0,0.0,0.0,0.019999999552965164,0.0,0.0,0.0,0.019999999552965164,0.0,0.0,0.0,0.019999999552965164,-0.04489128291606903,0.30945056676864624,9.787496566772461,0.03999999910593033,0.0,0.0,0.0,0.03999999910593033,0.0,0.0,0.0,0.03999999910593033
1778815188487020968,266193,1778815188485065906,imu_link,0.01780613884329796,-0.005807240027934313,-0.5965996980667114,0.8023149967193604,0.0024999999441206455,0.0,0.0,0.0,0.0024999999441206455,0.0,0.0,0.0,0.0024999999441206455,0.0,0.0,0.0,0.019999999552965164,0.0,0.0,0.0,0.019999999552965164,0.0,0.0,0.0,0.019999999552965164,-0.05985504016280174,0.31783026456832886,9.754575729370117,0.03999999910593033,0.0,0.0,0.0,0.03999999910593033,0.0,0.0,0.0,0.03999999910593033
1778815188492433446,266194,1778815188490065906,imu_link,0.01780613884329796,-0.005807240027934313,-0.5965996980667114,0.8023149967193604,0.0024999999441206455,0.0,0.0,0.0,0.0024999999441206455,0.0,0.0,0.0,0.0024999999441206455,0.0,0.0,0.0,0.019999999552965164,0.0,0.0,0.0,0.019999999552965164,0.0,0.0,0.0,0.019999999552965164,-0.05985504016280174,0.31783026456832886,9.754575729370117,0.03999999910593033,0.0,0.0,0.0,0.03999999910593033,0.0,0.0,0.0,0.03999999910593033
1778815188500942917,266195,1778815188495065906,imu_link,0.017093557864427567,-0.006019550375640392,-0.5966000556945801,0.8023287057876587,0.0024999999441206455,0.0,0.0,0.0,0.0024999999441206455,0.0,0.0,0.0,0.0024999999441206455,0.0,0.0,0.0,0.019999999552965164,0.0,0.0,0.0,0.019999999552965164,0.0,0.0,0.0,0.019999999552965164,-0.0802057534456253,0.3196259140968323,9.761159896850586,0.03999999910593033,0.0,0.0,0.0,0.03999999910593033,0.0,0.0,0.0,0.03999999910593033
1778815188522934270,266196,1778815188504065906,imu_link,0.01593455672264099,-0.0058535863645374775,-0.5966087579727173,0.8023473620414734,0.0024999999441206455,0.0,0.0,0.0,0.0024999999441206455,0.0,0.0,0.0,0.0024999999441206455,0.0,0.0,0.0,0.019999999552965164,0.0,0.0,0.0,0.019999999552965164,0.0,0.0,0.0,0.019999999552965164,-0.08918400853872299,0.30885201692581177,9.740809440612793,0.03999999910593033,0.0,0.0,0.0,0.03999999910593033,0.0,0.0,0.0,0.03999999910593033
1778815188531338148,266197,1778815188509065906,imu_link,0.01593455672264099,-0.0058535863645374775,-0.5966087579727173,0.8023473620414734,0.0024999999441206455,0.0,0.0,0.0,0.0024999999441206455,0.0,0.0,0.0,0.0024999999441206455,0.0,0.0,0.0,0.019999999552965164,0.0,0.0,0.0,0.019999999552965164,0.0,0.0,0.0,0.019999999552965164,-0.08918400853872299,0.30885201692581177,9.740809440612793,0.03999999910593033,0.0,0.0,0.0,0.03999999910593033,0.0,0.0,0.0,0.03999999910593033
1778815188555176555,266198,1778815188559065906,imu_link,0.01121495570987463,-0.004179554525762796,-0.5966512560844421,0.8024061322212219,0.0024999999441206455,0.0,0.0,0.0,0.0024999999441206455,0.0,0.0,0.0,0.0024999999441206455,0.0,0.0,0.0,0.019999999552965164,0.0,0.0,0.0,0.019999999552965164,0.0,0.0,0.0,0.019999999552965164,-0.08858545869588852,0.30047231912612915,9.743802070617676,0.03999999910593033,0.0,0.0,0.0,0.03999999910593033,0.0,0.0,0.0,0.03999999910593033
1778815188562126389,266199,1778815188561065906,imu_link,0.01180826872587204,-0.004528743680566549,-0.5966451168060303,0.8024002909660339,0.0024999999441206455,0.0,0.0,0.0,0.0024999999441206455,0.0,0.0,0.0,0.0024999999441206455,0.0,0.0,0.0,0.019999999552965164,0.0,0.0,0.0,0.019999999552965164,0.0,0.0,0.0,0.019999999552965164,-0.076015904545784,0.32501286268234253,9.757569313049316,0.03999999910593033,0.0,0.0,0.0,0.03999999910593033,0.0,0.0,0.0,0.03999999910593033
1778815188568457122,266200,1778815188566065906,imu_link,0.01180826872587204,-0.004528743680566549,-0.5966451168060303,0.8024002909660339,0.0024999999441206455,0.0,0.0,0.0,0.0024999999441206455,0.0,0.0,0.0,0.0024999999441206455,0.0,0.0,0.0,0.019999999552965164,0.0,0.0,0.0,0.019999999552965164,0.0,0.0,0.0,0.019999999552965164,-0.076015904545784,0.32501286268234253,9.757569313049316,0.03999999910593033,0.0,0.0,0.0,0.03999999910593033,0.0,0.0,0.0,0.03999999910593033
1778815188573772052,266201,1778815188571065906,imu_link,0.012429803609848022,-0.004940756596624851,-0.5966377854347229,0.8023937940597534,0.0024999999441206455,0.0,0.0,0.0,0.0024999999441206455,0.0,0.0,0.0,0.0024999999441206455,0.0,0.0,0.0,0.019999999552965164,0.0,0.0,0.0,0.019999999552965164,0.0,0.0,0.0,0.019999999552965164,-0.07122749835252762,0.32261866331100464,9.764152526855469,0.03999999910593033,0.0,0.0,0.0,0.03999999910593033,0.0,0.0,0.0,0.03999999910593033
1778815188579267294,266202,1778815188576065906,imu_link,0.012990877963602543,-0.005420909263193607,-0.5966295003890991,0.802388072013855,0.0024999999441206455,0.0,0.0,0.0,0.0024999999441206455,0.0,0.0,0.0,0.0024999999441206455,0.0,0.0,0.0,0.019999999552965164,0.0,0.0,0.0,0.019999999552965164,0.0,0.0,0.0,0.019999999552965164,-0.06224924325942993,0.3274070918560028,9.758766174316406,0.03999999910593033,0.0,0.0,0.0,0.03999999910593033,0.0,0.0,0.0,0.03999999910593033
1778815188584942362,266203,1778815188581065906,imu_link,0.012990877963602543,-0.005420909263193607,-0.5966295003890991,0.802388072013855,0.0024999999441206455,0.0,0.0,0.0,0.0024999999441206455,0.0,0.0,0.0,0.0024999999441206455,0.0,0.0,0.0,0.019999999552965164,0.0,0.0,0.0,0.019999999552965164,0.0,0.0,0.0,0.019999999552965164,-0.06224924325942993,0.3274070918560028,9.758766174316406,0.03999999910593033,0.0,0.0,0.0,0.03999999910593033,0.0,0.0,0.0,0.03999999910593033
1778815188590826192,266204,1778815188586065906,imu_link,0.013569374568760395,-0.005887375678867102,-0.5966209173202515,0.8023814558982849,0.0024999999441206455,0.0,0.0,0.0,0.0024999999441206455,0.0,0.0,0.0,0.0024999999441206455,0.0,0.0,0.0,0.019999999552965164,0.0,0.0,0.0,0.019999999552965164,0.0,0.0,0.0,0.019999999552965164,-0.06464344263076782,0.3106476664543152,9.753378868103027,0.03999999910593033,0.0,0.0,0.0,0.03999999910593033,0.0,0.0,0.0,0.03999999910593033
1778815188614518574,266205,1778815188595065906,imu_link,0.014666459523141384,-0.00629856251180172,-0.5966109037399292,0.8023665547370911,0.0024999999441206455,0.0,0.0,0.0,0.0024999999441206455,0.0,0.0,0.0,0.0024999999441206455,0.0,0.0,0.0,0.019999999552965164,0.0,0.0,0.0,0.019999999552965164,0.0,0.0,0.0,0.019999999552965164,-0.07541735470294952,0.314238965511322,9.729436874389648,0.03999999910593033,0.0,0.0,0.0,0.03999999910593033,0.0,0.0,0.0,0.03999999910593033
1778815188620269236,266206,1778815188600065906,imu_link,0.014666459523141384,-0.00629856251180172,-0.5966109037399292,0.8023665547370911,0.0024999999441206455,0.0,0.0,0.0,0.0024999999441206455,0.0,0.0,0.0,0.0024999999441206455,0.0,0.0,0.0,0.019999999552965164,0.0,0.0,0.0,0.019999999552965164,0.0,0.0,0.0,0.019999999552965164,-0.07541735470294952,0.314238965511322,9.729436874389648,0.03999999910593033,0.0,0.0,0.0,0.03999999910593033,0.0,0.0,0.0,0.03999999910593033
1778815188626348811,266207,1778815188605065906,imu_link,0.015386732295155525,-0.006496993359178305,-0.5966050028800964,0.8023558855056763,0.0024999999441206455,0.0,0.0,0.0,0.0024999999441206455,0.0,0.0,0.0,0.0024999999441206455,0.0,0.0,0.0,0.019999999552965164,0.0,0.0,0.0,0.019999999552965164,0.0,0.0,0.0,0.019999999552965164,-0.07781155407428741,0.31783026456832886,9.771934509277344,0.03999999910593033,0.0,0.0,0.0,0.03999999910593033,0.0,0.0,0.0,0.03999999910593033
1778815188634819829,266208,1778815188610065906,imu_link,0.014733249321579933,-0.006842173635959625,-0.5966018438339233,0.8023676872253418,0.0024999999441206455,0.0,0.0,0.0,0.0024999999441206455,0.0,0.0,0.0,0.0024999999441206455,0.0,0.0,0.0,0.019999999552965164,0.0,0.0,0.0,0.019999999552965164,0.0,0.0,0.0,0.019999999552965164,-0.05267243832349777,0.304063618183136,9.728240013122559,0.03999999910593033,0.0,0.0,0.0,0.03999999910593033,0.0,0.0,0.0,0.03999999910593033
1778815188640480626,266209,1778815188615065906,imu_link,0.014733249321579933,-0.006842173635959625,-0.5966018438339233,0.8023676872253418,0.0024999999441206455,0.0,0.0,0.0,0.0024999999441206455,0.0,0.0,0.0,0.0024999999441206455,0.0,0.0,0.0,0.019999999552965164,0.0,0.0,0.0,0.019999999552965164,0.0,0.0,0.0,0.019999999552965164,-0.05267243832349777,0.304063618183136,9.728240013122559,0.03999999910593033,0.0,0.0,0.0,0.03999999910593033,0.0,0.0,0.0,0.03999999910593033
1778815188664050283,266210,1778815188665065906,imu_link,0.01621839590370655,-0.0020433918107300997,-0.5966656804084778,0.8023180365562439,0.0024999999441206455,0.0,0.0,0.0,0.0024999999441206455,0.0,0.0,0.0,0.0024999999441206455,0.0,0.0,0.0,0.019999999552965164,0.0,0.0,0.0,0.019999999552965164,0.0,0.0,0.0,0.019999999552965164,-0.08200141042470932,0.3034650683403015,9.732429504394531,0.03999999910593033,0.0,0.0,0.0,0.03999999910593033,0.0,0.0,0.0,0.03999999910593033
1778815188671594957,266211,1778815188667065906,imu_link,0.016023050993680954,-0.0027027649339288473,-0.5966576337814331,0.8023259043693542,0.0024999999441206455,0.0,0.0,0.0,0.0024999999441206455,0.0,0.0,0.0,0.0024999999441206455,0.0,0.0,0.0,0.019999999552965164,0.0,0.0,0.0,0.019999999552965164,0.0,0.0,0.0,0.019999999552965164,-0.07362169772386551,0.3082534670829773,9.75278091430664,0.03999999910593033,0.0,0.0,0.0,0.03999999910593033,0.0,0.0,0.0,0.03999999910593033
1778815188675501511,266212,1778815188672065906,imu_link,0.016023050993680954,-0.0027027649339288473,-0.5966576337814331,0.8023259043693542,0.0024999999441206455,0.0,0.0,0.0,0.0024999999441206455,0.0,0.0,0.0,0.0024999999441206455,0.0,0.0,0.0,0.019999999552965164,0.0,0.0,0.0,0.019999999552965164,0.0,0.0,0.0,0.019999999552965164,-0.07362169772386551,0.3082534670829773,9.75278091430664,0.03999999910593033,0.0,0.0,0.0,0.03999999910593033,0.0,0.0,0.0,0.03999999910593033
1778815188681387064,266213,1778815188677065906,imu_link,0.015893490985035896,-0.0034376303665339947,-0.5966477990150452,0.8023329973220825,0.0024999999441206455,0.0,0.0,0.0,0.0024999999441206455,0.0,0.0,0.0,0.0024999999441206455,0.0,0.0,0.0,0.019999999552965164,0.0,0.0,0.0,0.019999999552965164,0.0,0.0,0.0,0.019999999552965164,-0.08738835901021957,0.3106476664543152,9.746196746826172,0.03999999910593033,0.0,0.0,0.0,0.03999999910593033,0.0,0.0,0.0,0.03999999910593033
1778815188686835648,266214,1778815188682065906,imu_link,0.015570190735161304,-0.004103363957256079,-0.5966399908065796,0.8023421168327332,0.0024999999441206455,0.0,0.0,0.0,0.0024999999441206455,0.0,0.0,0.0,0.0024999999441206455,0.0,0.0,0.0,0.019999999552965164,0.0,0.0,0.0,0.019999999552965164,0.0,0.0,0.0,0.019999999552965164,-0.0802057534456253,0.29807811975479126,9.73781681060791,0.03999999910593033,0.0,0.0,0.0,0.03999999910593033,0.0,0.0,0.0,0.03999999910593033
1778815188693614550,266215,1778815188687065906,imu_link,0.015570190735161304,-0.004103363957256079,-0.5966399908065796,0.8023421168327332,0.0024999999441206455,0.0,0.0,0.0,0.0024999999441206455,0.0,0.0,0.0,0.0024999999441206455,0.0,0.0,0.0,0.019999999552965164,0.0,0.0,0.0,0.019999999552965164,0.0,0.0,0.0,0.019999999552965164,-0.0802057534456253,0.29807811975479126,9.73781681060791,0.03999999910593033,0.0,0.0,0.0,0.03999999910593033,0.0,0.0,0.0,0.03999999910593033
1778815188702660805,266216,1778815188692065906,imu_link,0.015637867152690887,-0.004845230840146542,-0.5966283082962036,0.802345335483551,0.0024999999441206455,0.0,0.0,0.0,0.0024999999441206455,0.0,0.0,0.0,0.0024999999441206455,0.0,0.0,0.0,0.019999999552965164,0.0,0.0,0.0,0.019999999552965164,0.0,0.0,0.0,0.019999999552965164,-0.07182604819536209,0.33099839091300964,9.725845336914062,0.03999999910593033,0.0,0.0,0.0,0.03999999910593033,0.0,0.0,0.0,0.03999999910593033
1778815188723795752,266217,1778815188701065906,imu_link,0.015293292701244354,-0.005965161602944136,-0.5966124534606934,0.8023561835289001,0.0024999999441206455,0.0,0.0,0.0,0.0024999999441206455,0.0,0.0,0.0,0.0024999999441206455,0.0,0.0,0.0,0.019999999552965164,0.0,0.0,0.0,0.019999999552965164,0.0,0.0,0.0,0.019999999552965164,-0.07481880486011505,0.3124433159828186,9.753378868103027,0.03999999910593033,0.0,0.0,0.0,0.03999999910593033,0.0,0.0,0.0,0.03999999910593033
1778815188750004863,266218,1778815188751065906,imu_link,0.01494507770985365,-0.010459388606250286,-0.5965367555618286,0.8023731112480164,0.0024999999441206455,0.0,0.0,0.0,0.0024999999441206455,0.0,0.0,0.0,0.0024999999441206455,0.0,0.0,0.0,0.019999999552965164,0.0,0.0,0.0,0.019999999552965164,0.0,0.0,0.0,0.019999999552965164,-0.07481880486011505,0.3130418658256531,9.696516990661621,0.03999999910593033,0.0,0.0,0.0,0.03999999910593033,0.0,0.0,0.0,0.03999999910593033
1778815188755473872,266219,1778815188753065906,imu_link,0.014877326786518097,-0.00977412424981594,-0.5965491533279419,0.8023737668991089,0.0024999999441206455,0.0,0.0,0.0,0.0024999999441206455,0.0,0.0,0.0,0.0024999999441206455,0.0,0.0,0.0,0.019999999552965164,0.0,0.0,0.0,0.019999999552965164,0.0,0.0,0.0,0.019999999552965164,-0.06165069341659546,0.3100491166114807,9.779715538024902,0.03999999910593033,0.0,0.0,0.0,0.03999999910593033,0.0,0.0,0.0,0.03999999910593033
1778815188764824082,266220,1778815188758065906,imu_link,0.014877326786518097,-0.00977412424981594,-0.5965491533279419,0.8023737668991089,0.0024999999441206455,0.0,0.0,0.0,0.0024999999441206455,0.0,0.0,0.0,0.0024999999441206455,0.0,0.0,0.0,0.019999999552965164,0.0,0.0,0.0,0.019999999552965164,0.0,0.0,0.0,0.019999999552965164,-0.06165069341659546,0.3100491166114807,9.779715538024902,0.03999999910593033,0.0,0.0,0.0,0.03999999910593033,0.0,0.0,0.0,0.03999999910593033
1778815188770936025,266221,1778815188763065906,imu_link,0.014828174374997616,-0.009030024521052837,-0.5965622067451477,0.8023736476898193,0.0024999999441206455,0.0,0.0,0.0,0.0024999999441206455,0.0,0.0,0.0,0.0024999999441206455,0.0,0.0,0.0,0.019999999552965164,0.0,0.0,0.0,0.019999999552965164,0.0,0.0,0.0,0.019999999552965164,-0.07781155407428741,0.29807811975479126,9.763554573059082,0.03999999910593033,0.0,0.0,0.0,0.03999999910593033,0.0,0.0,0.0,0.03999999910593033
1778815188776944526,266222,1778815188768065906,imu_link,0.01478490512818098,-0.008292535319924355,-0.5965748429298401,0.8023729920387268,0.0024999999441206455,0.0,0.0,0.0,0.0024999999441206455,0.0,0.0,0.0,0.0024999999441206455,0.0,0.0,0.0,0.019999999552965164,0.0,0.0,0.0,0.019999999552965164,0.0,0.0,0.0,0.019999999552965164,-0.07362169772386551,0.3016694188117981,9.749787330627441,0.03999999910593033,0.0,0.0,0.0,0.03999999910593033,0.0,0.0,0.0,0.03999999910593033
1778815188782429553,266223,1778815188773065906,imu_link,0.01478490512818098,-0.008292535319924355,-0.5965748429298401,0.8023729920387268,0.0024999999441206455,0.0,0.0,0.0,0.0024999999441206455,0.0,0.0,0.0,0.0024999999441206455,0.0,0.0,0.0,0.019999999552965164,0.0,0.0,0.0,0.019999999552965164,0.0,0.0,0.0,0.019999999552965164,-0.07362169772386551,0.3016694188117981,9.749787330627441,0.03999999910593033,0.0,0.0,0.0,0.03999999910593033,0.0,0.0,0.0,0.03999999910593033
1778815188788225535,266224,1778815188778065906,imu_link,0.01482326164841652,-0.007551109883934259,-0.596587061882019,0.8023704886436462,0.0024999999441206455,0.0,0.0,0.0,0.0024999999441206455,0.0,0.0,0.0,0.0024999999441206455,0.0,0.0,0.0,0.019999999552965164,0.0,0.0,0.0,0.019999999552965164,0.0,0.0,0.0,0.019999999552965164,-0.06703764945268631,0.31184476613998413,9.759963035583496,0.03999999910593033,0.0,0.0,0.0,0.03999999910593033,0.0,0.0,0.0,0.03999999910593033
1778815188812916362,266225,1778815188787065906,imu_link,0.01464389730244875,-0.006393479183316231,-0.5966061949729919,0.8023696541786194,0.0024999999441206455,0.0,0.0,0.0,0.0024999999441206455,0.0,0.0,0.0,0.0024999999441206455,0.0,0.0,0.0,0.019999999552965164,0.0,0.0,0.0,0.019999999552965164,0.0,0.0,0.0,0.019999999552965164,-0.07122749835252762,0.30286651849746704,9.752182006835938,0.03999999910593033,0.0,0.0,0.0,0.03999999910593033,0.0,0.0,0.0,0.03999999910593033
1778815188818412891,266226,1778815188792065906,imu_link,0.01464389730244875,-0.006393479183316231,-0.5966061949729919,0.8023696541786194,0.0024999999441206455,0.0,0.0,0.0,0.0024999999441206455,0.0,0.0,0.0,0.0024999999441206455,0.0,0.0,0.0,0.019999999552965164,0.0,0.0,0.0,0.019999999552965164,0.0,0.0,0.0,0.019999999552965164,-0.07122749835252762,0.30286651849746704,9.752182006835938,0.03999999910593033,0.0,0.0,0.0,0.03999999910593033,0.0,0.0,0.0,0.03999999910593033
1778815188842218198,266227,1778815188841065906,imu_link,0.01810607686638832,-0.0029131174087524414,-0.5966407656669617,0.802293598651886,0.0024999999441206455,0.0,0.0,0.0,0.0024999999441206455,0.0,0.0,0.0,0.0024999999441206455,0.0,0.0,0.0,0.019999999552965164,0.0,0.0,0.0,0.019999999552965164,0.0,0.0,0.0,0.019999999552965164,-0.08379705995321274,0.3064578175544739,9.778517723083496,0.03999999910593033,0.0,0.0,0.0,0.03999999910593033,0.0,0.0,0.0,0.03999999910593033
1778815188848249980,266228,1778815188843065906,imu_link,0.017642980441451073,-0.0034173971507698298,-0.5966362953186035,0.8023051023483276,0.0024999999441206455,0.0,0.0,0.0,0.0024999999441206455,0.0,0.0,0.0,0.0024999999441206455,0.0,0.0,0.0,0.019999999552965164,0.0,0.0,0.0,0.019999999552965164,0.0,0.0,0.0,0.019999999552965164,-0.0975637212395668,0.31124621629714966,9.779715538024902,0.03999999910593033,0.0,0.0,0.0,0.03999999910593033,0.0,0.0,0.0,0.03999999910593033
1778815188853334177,266229,1778815188848065906,imu_link,0.017642980441451073,-0.0034173971507698298,-0.5966362953186035,0.8023051023483276,0.0024999999441206455,0.0,0.0,0.0,0.0024999999441206455,0.0,0.0,0.0,0.0024999999441206455,0.0,0.0,0.0,0.019999999552965164,0.0,0.0,0.0,0.019999999552965164,0.0,0.0,0.0,0.019999999552965164,-0.0975637212395668,0.31124621629714966,9.779715538024902,0.03999999910593033,0.0,0.0,0.0,0.03999999910593033,0.0,0.0,0.0,0.03999999910593033
1778815188859043965,266230,1778815188853065906,imu_link,0.01717008277773857,-0.0039869449101388454,-0.5966305732727051,0.8023169636726379,0.0024999999441206455,0.0,0.0,0.0,0.0024999999441206455,0.0,0.0,0.0,0.0024999999441206455,0.0,0.0,0.0,0.019999999552965164,0.0,0.0,0.0,0.019999999552965164,0.0,0.0,0.0,0.019999999552965164,-0.08140285313129425,0.31184476613998413,9.739013671875,0.03999999910593033,0.0,0.0,0.0,0.03999999910593033,0.0,0.0,0.0,0.03999999910593033
1778815188867263056,266231,1778815188858065906,imu_link,0.016655003651976585,-0.004517940804362297,-0.5966254472732544,0.8023288249969482,0.0024999999441206455,0.0,0.0,0.0,0.0024999999441206455,0.0,0.0,0.0,0.0024999999441206455,0.0,0.0,0.0,0.019999999552965164,0.0,0.0,0.0,0.019999999552965164,0.0,0.0,0.0,0.019999999552965164,-0.076015904545784,0.3082534670829773,9.787496566772461,0.03999999910593033,0.0,0.0,0.0,0.03999999910593033,0.0,0.0,0.0,0.03999999910593033
1778815188872410465,266232,1778815188863065906,imu_link,0.016655003651976585,-0.004517940804362297,-0.5966254472732544,0.8023288249969482,0.0024999999441206455,0.0,0.0,0.0,0.0024999999441206455,0.0,0.0,0.0,0.0024999999441206455,0.0,0.0,0.0,0.019999999552965164,0.0,0.0,0.0,0.019999999552965164,0.0,0.0,0.0,0.019999999552965164,-0.076015904545784,0.3082534670829773,9.787496566772461,0.03999999910593033,0.0,0.0,0.0,0.03999999910593033,0.0,0.0,0.0,0.03999999910593033
1778815188879263716,266233,1778815188868065906,imu_link,0.016301119700074196,-0.00517133018001914,-0.5966169834136963,0.8023383617401123,0.0024999999441206455,0.0,0.0,0.0,0.0024999999441206455,0.0,0.0,0.0,0.0024999999441206455,0.0,0.0,0.0,0.019999999552965164,0.0,0.0,0.0,0.019999999552965164,0.0,0.0,0.0,0.019999999552965164,-0.07302314788103104,0.32022446393966675,9.740809440612793,0.03999999910593033,0.0,0.0,0.0,0.03999999910593033,0.0,0.0,0.0,0.03999999910593033
1778815188904080768,266234,1778815188877065906,imu_link,0.015444708988070488,-0.0059646498411893845,-0.5966086387634277,0.8023561835289001,0.0024999999441206455,0.0,0.0,0.0,0.0024999999441206455,0.0,0.0,0.0,0.0024999999441206455,0.0,0.0,0.0,0.019999999552965164,0.0,0.0,0.0,0.019999999552965164,0.0,0.0,0.0,0.019999999552965164,-0.058059390634298325,0.3058592677116394,9.747992515563965,0.03999999910593033,0.0,0.0,0.0,0.03999999910593033,0.0,0.0,0.0,0.03999999910593033
1778815188925228428,266235,1778815188929065906,imu_link,0.014148863032460213,-0.01050617080181837,-0.5965352058410645,0.8023880124092102,0.0024999999441206455,0.0,0.0,0.0,0.0024999999441206455,0.0,0.0,0.0,0.0024999999441206455,0.0,0.0,0.0,0.019999999552965164,0.0,0.0,0.0,0.019999999552965164,0.0,0.0,0.0,0.019999999552965164,-0.07481880486011505,0.31543606519699097,9.745597839355469,0.03999999910593033,0.0,0.0,0.0,0.03999999910593033,0.0,0.0,0.0,0.03999999910593033
1778815188933178935,266236,1778815188931065906,imu_link,0.014234068803489208,-0.009825888089835644,-0.5965470671653748,0.8023863434791565,0.0024999999441206455,0.0,0.0,0.0,0.0024999999441206455,0.0,0.0,0.0,0.0024999999441206455,0.0,0.0,0.0,0.019999999552965164,0.0,0.0,0.0,0.019999999552965164,0.0,0.0,0.0,0.019999999552965164,-0.08379705995321274,0.29628247022628784,9.743802070617676,0.03999999910593033,0.0,0.0,0.0,0.03999999910593033,0.0,0.0,0.0,0.03999999910593033
1778815188938982560,266237,1778815188936065906,imu_link,0.014234068803489208,-0.009825888089835644,-0.5965470671653748,0.8023863434791565,0.0024999999441206455,0.0,0.0,0.0,0.0024999999441206455,0.0,0.0,0.0,0.0024999999441206455,0.0,0.0,0.0,0.019999999552965164,0.0,0.0,0.0,0.019999999552965164,0.0,0.0,0.0,0.019999999552965164,-0.08379705995321274,0.29628247022628784,9.743802070617676,0.03999999910593033,0.0,0.0,0.0,0.03999999910593033,0.0,0.0,0.0,0.03999999910593033
1778815188944826327,266238,1778815188941065906,imu_link,0.014540617354214191,-0.00914877001196146,-0.5965584516525269,0.8023805022239685,0.0024999999441206455,0.0,0.0,0.0,0.0024999999441206455,0.0,0.0,0.0,0.0024999999441206455,0.0,0.0,0.0,0.019999999552965164,0.0,0.0,0.0,0.019999999552965164,0.0,0.0,0.0,0.019999999552965164,-0.06165069341659546,0.32680851221084595,9.762357711791992,0.03999999910593033,0.0,0.0,0.0,0.03999999910593033,0.0,0.0,0.0,0.03999999910593033
