%time,field.header.seq,field.header.stamp,field.header.frame_id,field.orientation.x,field.orientation.y,field.orientation.z,field.orientation.w,field.orientation_covariance0,field.orientation_covariance1,field.orientation_covariance2,field.orientation_covariance3,field.orientation_covariance4,field.orientation_covariance5,field.orientation_covariance6,field.orientation_covariance7,field.orientation_covariance8,field.angular_velocity.x,field.angular_velocity.y,field.angular_velocity.z,field.angular_velocity_covariance0,field.angular_velocity_covariance1,field.angular_velocity_covariance2,field.angular_velocity_covariance3,field.angular_velocity_covariance4,field.angular_velocity_covariance5,field.angular_velocity_covariance6,field.angular_velocity_covariance7,field.angular_velocity_covariance8,field.linear_acceleration.x,field.linear_acceleration.y,field.linear_acceleration.z,field.linear_acceleration_covariance0,field.linear_acceleration_covariance1,field.linear_acceleration_covariance2,field.linear_acceleration_covariance3,field.linear_acceleration_covariance4,field.linear_acceleration_covariance5,field.linear_acceleration_covariance6,field.linear_acceleration_covariance7,field.linear_acceleration_covariance8
1778815394817474325,286260,1778815394775059934,imu_link,0.01323002204298973,0.007006379775702953,0.015018012374639511,0.9997708201408386,0.0024999999441206455,0.0,0.0,0.0,0.0024999999441206455,0.0,0.0,0.0,0.0024999999441206455,0.0,0.0,0.0,0.019999999552965164,0.0,0.0,0.0,0.019999999552965164,0.0,0.0,0.0,0.019999999552965164,-0.12090718746185303,0.2819172441959381,9.725845336914062,0.03999999910593033,0.0,0.0,0.0,0.03999999910593033,0.0,0.0,0.0,0.03999999910593033
1778815394822897866,286261,1778815394778059934,imu_link,0.014162829145789146,0.007059544324874878,0.01502364780753851,0.9997576475143433,0.0024999999441206455,0.0,0.0,0.0,0.0024999999441206455,0.0,0.0,0.0,0.0024999999441206455,0.0,0.0,0.0,0.019999999552965164,0.0,0.0,0.0,0.019999999552965164,0.0,0.0,0.0,0.019999999552965164,-0.1346738487482071,0.30286651849746704,9.757569313049316,0.03999999910593033,0.0,0.0,0.0,0.03999999910593033,0.0,0.0,0.0,0.03999999910593033
1778815394846204469,286262,1778815394823059934,imu_link,0.01764076016843319,0.004898131359368563,0.015078175812959671,0.9997143745422363,0.0024999999441206455,0.0,0.0,0.0,0.0024999999441206455,0.0,0.0,0.0,0.0024999999441206455,0.0,0.0,0.0,0.019999999552965164,0.0,0.0,0.0,0.019999999552965164,0.0,0.0,0.0,0.019999999552965164,-0.12449848651885986,0.2932896912097931,9.767744064331055,0.03999999910593033,0.0,0.0,0.0,0.03999999910593033,0.0,0.0,0.0,0.03999999910593033
1778815394851952284,286263,1778815394826059934,imu_link,0.017157340422272682,0.0053886352106928825,0.015067243948578835,0.9997204542160034,0.0024999999441206455,0.0,0.0,0.0,0.0024999999441206455,0.0,0.0,0.0,0.0024999999441206455,0.0,0.0,0.0,0.019999999552965164,0.0,0.0,0.0,0.019999999552965164,0.0,0.0,0.0,0.019999999552965164,-0.1496376097202301,0.28730419278144836,9.715071678161621,0.03999999910593033,0.0,0.0,0.0,0.03999999910593033,0.0,0.0,0.0,0.03999999910593033
1778815394857583642,286264,1778815394831059934,imu_link,0.016834869980812073,0.005770849995315075,0.015058998018503189,0.9997239112854004,0.0024999999441206455,0.0,0.0,0.0,0.0024999999441206455,0.0,0.0,0.0,0.0024999999441206455,0.0,0.0,0.0,0.019999999552965164,0.0,0.0,0.0,0.019999999552965164,0.0,0.0,0.0,0.019999999552965164,-0.14006079733371735,0.30466216802597046,9.776124000549316,0.03999999910593033,0.0,0.0,0.0,0.03999999910593033,0.0,0.0,0.0,0.03999999910593033
1778815394865294292,286265,1778815394836059934,imu_link,0.016834869980812073,0.005770849995315075,0.015058998018503189,0.9997239112854004,0.0024999999441206455,0.0,0.0,0.0,0.0024999999441206455,0.0,0.0,0.0,0.0024999999441206455,0.0,0.0,0.0,0.019999999552965164,0.0,0.0,0.0,0.019999999552965164,0.0,0.0,0.0,0.019999999552965164,-0.14006079733371735,0.30466216802597046,9.776124000549316,0.03999999910593033,0.0,0.0,0.0,0.03999999910593033,0.0,0.0,0.0,0.03999999910593033
1778815394870857444,286266,1778815394843059934,imu_link,0.016367916017770767,0.006350623443722725,0.015046605840325356,0.999728262424469,0.0024999999441206455,0.0,0.0,0.0,0.0024999999441206455,0.0,0.0,0.0,0.0024999999441206455,0.0,0.0,0.0,0.019999999552965164,0.0,0.0,0.0,0.019999999552965164,0.0,0.0,0.0,0.019999999552965164,-0.12210428714752197,0.3190273642539978,9.755773544311523,0.03999999910593033,0.0,0.0,0.0,0.03999999910593033,0.0,0.0,0.0,0.03999999910593033
1778815394877143270,286267,1778815394848059934,imu_link,0.01612652651965618,0.0070477998815476894,0.015033652074635029,0.9997278451919556,0.0024999999441206455,0.0,0.0,0.0,0.0024999999441206455,0.0,0.0,0.0,0.0024999999441206455,0.0,0.0,0.0,0.019999999552965164,0.0,0.0,0.0,0.019999999552965164,0.0,0.0,0.0,0.019999999552965164,-0.1256955862045288,0.31842881441116333,9.735422134399414,0.03999999910593033,0.0,0.0,0.0,0.03999999910593033,0.0,0.0,0.0,0.03999999910593033
1778815394901342153,286268,1778815394857059934,imu_link,0.01600578799843788,0.0063161347061395645,0.015044703148305416,0.9997345209121704,0.0024999999441206455,0.0,0.0,0.0,0.0024999999441206455,0.0,0.0,0.0,0.0024999999441206455,0.0,0.0,0.0,0.019999999552965164,0.0,0.0,0.0,0.019999999552965164,0.0,0.0,0.0,0.019999999552965164,-0.12030863016843796,0.3148375153541565,9.764751434326172,0.03999999910593033,0.0,0.0,0.0,0.03999999910593033,0.0,0.0,0.0,0.03999999910593033
1778815394907025350,286269,1778815394860059934,imu_link,0.01650325581431389,0.00679389014840126,0.015040028840303421,0.9997233152389526,0.0024999999441206455,0.0,0.0,0.0,0.0024999999441206455,0.0,0.0,0.0,0.0024999999441206455,0.0,0.0,0.0,0.019999999552965164,0.0,0.0,0.0,0.019999999552965164,0.0,0.0,0.0,0.019999999552965164,-0.1215057373046875,0.31603461503982544,9.684545516967773,0.03999999910593033,0.0,0.0,0.0,0.03999999910593033,0.0,0.0,0.0,0.03999999910593033
1778815394929932150,286270,1778815394912059934,imu_link,0.013119081035256386,0.0033984335605055094,0.015074090100824833,0.9997903108596802,0.0024999999441206455,0.0,0.0,0.0,0.0024999999441206455,0.0,0.0,0.0,0.0024999999441206455,0.0,0.0,0.0,0.019999999552965164,0.0,0.0,0.0,0.019999999552965164,0.0,0.0,0.0,0.019999999552965164,-0.11312603205442429,0.30885201692581177,9.744400978088379,0.03999999910593033,0.0,0.0,0.0,0.03999999910593033,0.0,0.0,0.0,0.03999999910593033
1778815394936436811,286271,1778815394915059934,imu_link,0.01352647878229618,0.00394609197974205,0.015068178996443748,0.9997829794883728,0.0024999999441206455,0.0,0.0,0.0,0.0024999999441206455,0.0,0.0,0.0,0.0024999999441206455,0.0,0.0,0.0,0.019999999552965164,0.0,0.0,0.0,0.019999999552965164,0.0,0.0,0.0,0.019999999552965164,-0.10115502029657364,0.28730419278144836,9.782708168029785,0.03999999910593033,0.0,0.0,0.0,0.03999999910593033,0.0,0.0,0.0,0.03999999910593033
1778815394941567805,286272,1778815394922059934,imu_link,0.01412422489374876,0.004382739774882793,0.015064477920532227,0.999772846698761,0.0024999999441206455,0.0,0.0,0.0,0.0024999999441206455,0.0,0.0,0.0,0.0024999999441206455,0.0,0.0,0.0,0.019999999552965164,0.0,0.0,0.0,0.019999999552965164,0.0,0.0,0.0,0.019999999552965164,-0.10953472554683685,0.3166331648826599,9.749787330627441,0.03999999910593033,0.0,0.0,0.0,0.03999999910593033,0.0,0.0,0.0,0.03999999910593033
1778815394947003884,286273,1778815394927059934,imu_link,0.01412422489374876,0.004382739774882793,0.015064477920532227,0.999772846698761,0.0024999999441206455,0.0,0.0,0.0,0.0024999999441206455,0.0,0.0,0.0,0.0024999999441206455,0.0,0.0,0.0,0.019999999552965164,0.0,0.0,0.0,0.019999999552965164,0.0,0.0,0.0,0.019999999552965164,-0.10953472554683685,0.3166331648826599,9.749787330627441,0.03999999910593033,0.0,0.0,0.0,0.03999999910593033,0.0,0.0,0.0,0.03999999910593033
1778815394953561091,286274,1778815394932059934,imu_link,0.01456980500370264,0.004979038145393133,0.01505787018686533,0.9997637867927551,0.0024999999441206455,0.0,0.0,0.0,0.0024999999441206455,0.0,0.0,0.0,0.0024999999441206455,0.0,0.0,0.0,0.019999999552965164,0.0,0.0,0.0,0.019999999552965164,0.0,0.0,0.0,0.019999999552965164,-0.12270283699035645,0.30945056676864624,9.785101890563965,0.03999999910593033,0.0,0.0,0.0,0.03999999910593033,0.0,0.0,0.0,0.03999999910593033
1778815394960797876,286275,1778815394937059934,imu_link,0.014785313978791237,0.005430447869002819,0.015052282251417637,0.9997583031654358,0.0024999999441206455,0.0,0.0,0.0,0.0024999999441206455,0.0,0.0,0.0,0.0024999999441206455,0.0,0.0,0.0,0.019999999552965164,0.0,0.0,0.0,0.019999999552965164,0.0,0.0,0.0,0.019999999552965164,-0.1478419452905655,0.3130418658256531,9.75397777557373,0.03999999910593033,0.0,0.0,0.0,0.03999999910593033,0.0,0.0,0.0,0.03999999910593033
1778815394985253505,286276,1778815394946059934,imu_link,0.015246756374835968,0.005237658973783255,0.015057550743222237,0.9997523427009583,0.0024999999441206455,0.0,0.0,0.0,0.0024999999441206455,0.0,0.0,0.0,0.0024999999441206455,0.0,0.0,0.0,0.019999999552965164,0.0,0.0,0.0,0.019999999552965164,0.0,0.0,0.0,0.019999999552965164,-0.09516951441764832,0.30466216802597046,9.749189376831055,0.03999999910593033,0.0,0.0,0.0,0.03999999910593033,0.0,0.0,0.0,0.03999999910593033
1778815394990779100,286277,1778815394949059934,imu_link,0.015435813926160336,0.0061484756879508495,0.015044531784951687,0.9997444748878479,0.0024999999441206455,0.0,0.0,0.0,0.0024999999441206455,0.0,0.0,0.0,0.0024999999441206455,0.0,0.0,0.0,0.019999999552965164,0.0,0.0,0.0,0.019999999552965164,0.0,0.0,0.0,0.019999999552965164,-0.1346738487482071,0.3076549172401428,9.765948295593262,0.03999999910593033,0.0,0.0,0.0,0.03999999910593033,0.0,0.0,0.0,0.03999999910593033
1778815395014481259,286278,1778815394995059934,imu_link,0.01933850161731243,0.004601448308676481,0.01509151328355074,0.99968421459198,0.0024999999441206455,0.0,0.0,0.0,0.0024999999441206455,0.0,0.0,0.0,0.0024999999441206455,0.0,0.0,0.0,0.019999999552965164,0.0,0.0,0.0,0.019999999552965164,0.0,0.0,0.0,0.019999999552965164,-0.11312603205442429,0.30705636739730835,9.727641105651855,0.03999999910593033,0.0,0.0,0.0,0.03999999910593033,0.0,0.0,0.0,0.03999999910593033
1778815395020333085,286279,1778815394998059934,imu_link,0.01869998499751091,0.004844229202717543,0.015084045007824898,0.9996953010559082,0.0024999999441206455,0.0,0.0,0.0,0.0024999999441206455,0.0,0.0,0.0,0.0024999999441206455,0.0,0.0,0.0,0.019999999552965164,0.0,0.0,0.0,0.019999999552965164,0.0,0.0,0.0,0.019999999552965164,-0.11432313174009323,0.3016694188117981,9.73661994934082,0.03999999910593033,0.0,0.0,0.0,0.03999999910593033,0.0,0.0,0.0,0.03999999910593033
1778815395025815752,286280,1778815395005059934,imu_link,0.018021386116743088,0.005140454508364201,0.015075384639203548,0.999706506729126,0.0024999999441206455,0.0,0.0,0.0,0.0024999999441206455,0.0,0.0,0.0,0.0024999999441206455,0.0,0.0,0.0,0.019999999552965164,0.0,0.0,0.0,0.019999999552965164,0.0,0.0,0.0,0.019999999552965164,-0.11971008032560349,0.2968810200691223,9.719860076904297,0.03999999910593033,0.0,0.0,0.0,0.03999999910593033,0.0,0.0,0.0,0.03999999910593033
1778815395034123691,286281,1778815395010059934,imu_link,0.018021386116743088,0.005140454508364201,0.015075384639203548,0.999706506729126,0.0024999999441206455,0.0,0.0,0.0,0.0024999999441206455,0.0,0.0,0.0,0.0024999999441206455,0.0,0.0,0.0,0.019999999552965164,0.0,0.0,0.0,0.019999999552965164,0.0,0.0,0.0,0.019999999552965164,-0.11971008032560349,0.2968810200691223,9.719860076904297,0.03999999910593033,0.0,0.0,0.0,0.03999999910593033,0.0,0.0,0.0,0.03999999910593033
1778815395039783250,286282,1778815395015059934,imu_link,0.017349258065223694,0.005461100023239851,0.015066304244101048,0.9997168183326721,0.0024999999441206455,0.0,0.0,0.0,0.0024999999441206455,0.0,0.0,0.0,0.0024999999441206455,0.0,0.0,0.0,0.019999999552965164,0.0,0.0,0.0,0.019999999552965164,0.0,0.0,0.0,0.019999999552965164,-0.11791443079710007,0.3076549172401428,9.765948295593262,0.03999999910593033,0.0,0.0,0.0,0.03999999910593033,0.0,0.0,0.0,0.03999999910593033
1778815395045347642,286283,1778815395020059934,imu_link,0.01697285659611225,0.005790272261947393,0.015058605931699276,0.9997215270996094,0.0024999999441206455,0.0,0.0,0.0,0.0024999999441206455,0.0,0.0,0.0,0.0024999999441206455,0.0,0.0,0.0,0.019999999552965164,0.0,0.0,0.0,0.019999999552965164,0.0,0.0,0.0,0.019999999552965164,-0.13587094843387604,0.3016694188117981,9.746794700622559,0.03999999910593033,0.0,0.0,0.0,0.03999999910593033,0.0,0.0,0.0,0.03999999910593033
1778815395069389778,286284,1778815395029059934,imu_link,0.016588065773248672,0.00610945001244545,0.01505102775990963,0.9997261166572571,0.0024999999441206455,0.0,0.0,0.0,0.0024999999441206455,0.0,0.0,0.0,0.0024999999441206455,0.0,0.0,0.0,0.019999999552965164,0.0,0.0,0.0,0.019999999552965164,0.0,0.0,0.0,0.019999999552965164,-0.1304839849472046,0.30705636739730835,9.762955665588379,0.03999999910593033,0.0,0.0,0.0,0.03999999910593033,0.0,0.0,0.0,0.03999999910593033
1778815395090557782,286285,1778815395080059934,imu_link,0.013097904622554779,0.0020842324011027813,0.015097505412995815,0.9997937679290771,0.0024999999441206455,0.0,0.0,0.0,0.0024999999441206455,0.0,0.0,0.0,0.0024999999441206455,0.0,0.0,0.0,0.019999999552965164,0.0,0.0,0.0,0.019999999552965164,0.0,0.0,0.0,0.019999999552965164,-0.09038111567497253,0.30466216802597046,9.779715538024902,0.03999999910593033,0.0,0.0,0.0,0.03999999910593033,0.0,0.0,0.0,0.03999999910593033
1778815395098188224,286286,1778815395083059934,imu_link,0.013332096859812737,0.0027264354284852743,0.015089510940015316,0.9997891783714294,0.0024999999441206455,0.0,0.0,0.0,0.0024999999441206455,0.0,0.0,0.0,0.0024999999441206455,0.0,0.0,0.0,0.019999999552965164,0.0,0.0,0.0,0.019999999552965164,0.0,0.0,0.0,0.019999999552965164,-0.14844051003456116,0.2992752194404602,9.77253246307373,0.03999999910593033,0.0,0.0,0.0,0.03999999910593033,0.0,0.0,0.0,0.03999999910593033
1778815395104311616,286287,1778815395090059934,imu_link,0.013720950111746788,0.0033549617510288954,0.015082084573805332,0.9997822046279907,0.0024999999441206455,0.0,0.0,0.0,0.0024999999441206455,0.0,0.0,0.0,0.0024999999441206455,0.0,0.0,0.0,0.019999999552965164,0.0,0.0,0.0,0.019999999552965164,0.0,0.0,0.0,0.019999999552965164,-0.12689268589019775,0.3106476664543152,9.755773544311523,0.03999999910593033,0.0,0.0,0.0,0.03999999910593033,0.0,0.0,0.0,0.03999999910593033
1778815395109292356,286288,1778815395095059934,imu_link,0.013720950111746788,0.0033549617510288954,0.015082084573805332,0.9997822046279907,0.0024999999441206455,0.0,0.0,0.0,0.0024999999441206455,0.0,0.0,0.0,0.0024999999441206455,0.0,0.0,0.0,0.019999999552965164,0.0,0.0,0.0,0.019999999552965164,0.0,0.0,0.0,0.019999999552965164,-0.12689268589019775,0.3106476664543152,9.755773544311523,0.03999999910593033,0.0,0.0,0.0,0.03999999910593033,0.0,0.0,0.0,0.03999999910593033
1778815395115115210,286289,1778815395100059934,imu_link,0.01411525346338749,0.003986424300819635,0.015074625611305237,0.9997745156288147,0.0024999999441206455,0.0,0.0,0.0,0.0024999999441206455,0.0,0.0,0.0,0.0024999999441206455,0.0,0.0,0.0,0.019999999552965164,0.0,0.0,0.0,0.019999999552965164,0.0,0.0,0.0,0.019999999552965164,-0.11971008032560349,0.3058592677116394,9.733028411865234,0.03999999910593033,0.0,0.0,0.0,0.03999999910593033,0.0,0.0,0.0,0.03999999910593033
1778815395120919321,286290,1778815395105059934,imu_link,0.01461480837315321,0.004536244086921215,0.015068714506924152,0.999765157699585,0.0024999999441206455,0.0,0.0,0.0,0.0024999999441206455,0.0,0.0,0.0,0.0024999999441206455,0.0,0.0,0.0,0.019999999552965164,0.0,0.0,0.0,0.019999999552965164,0.0,0.0,0.0,0.019999999552965164,-0.12928688526153564,0.3298012912273407,9.804255485534668,0.03999999910593033,0.0,0.0,0.0,0.03999999910593033,0.0,0.0,0.0,0.03999999910593033
1778815395145163074,286291,1778815395114059934,imu_link,0.014713548123836517,0.005026276223361492,0.015061940997838974,0.9997612833976746,0.0024999999441206455,0.0,0.0,0.0,0.0024999999441206455,0.0,0.0,0.0,0.0024999999441206455,0.0,0.0,0.0,0.019999999552965164,0.0,0.0,0.0,0.019999999552965164,0.0,0.0,0.0,0.019999999552965164,-0.1280897855758667,0.295683890581131,9.740809440612793,0.03999999910593033,0.0,0.0,0.0,0.03999999910593033,0.0,0.0,0.0,0.03999999910593033
1778815395151107327,286292,1778815395117059934,imu_link,0.014656818471848965,0.005709013901650906,0.015051568858325481,0.9997587203979492,0.0024999999441206455,0.0,0.0,0.0,0.0024999999441206455,0.0,0.0,0.0,0.0024999999441206455,0.0,0.0,0.0,0.019999999552965164,0.0,0.0,0.0,0.019999999552965164,0.0,0.0,0.0,0.019999999552965164,-0.1304839849472046,0.28550854325294495,9.734824180603027,0.03999999910593033,0.0,0.0,0.0,0.03999999910593033,0.0,0.0,0.0,0.03999999910593033
1778815395156615249,286293,1778815395122059934,imu_link,0.014666645787656307,0.006209114566445351,0.015044246800243855,0.9997556209564209,0.0024999999441206455,0.0,0.0,0.0,0.0024999999441206455,0.0,0.0,0.0,0.0024999999441206455,0.0,0.0,0.0,0.019999999552965164,0.0,0.0,0.0,0.019999999552965164,0.0,0.0,0.0,0.019999999552965164,-0.12030863016843796,0.2885012924671173,9.766547203063965,0.03999999910593033,0.0,0.0,0.0,0.03999999910593033,0.0,0.0,0.0,0.03999999910593033
1778815395165139692,286294,1778815395127059934,imu_link,0.014666645787656307,0.006209114566445351,0.015044246800243855,0.9997556209564209,0.0024999999441206455,0.0,0.0,0.0,0.0024999999441206455,0.0,0.0,0.0,0.0024999999441206455,0.0,0.0,0.0,0.019999999552965164,0.0,0.0,0.0,0.019999999552965164,0.0,0.0,0.0,0.019999999552965164,-0.12030863016843796,0.2885012924671173,9.766547203063965,0.03999999910593033,0.0,0.0,0.0,0.03999999910593033,0.0,0.0,0.0,0.03999999910593033
1778815395185616570,286295,1778815395168059934,imu_link,0.012383806519210339,0.009739627130329609,0.01497833151370287,0.9997593760490417,0.0024999999441206455,0.0,0.0,0.0,0.0024999999441206455,0.0,0.0,0.0,0.0024999999441206455,0.0,0.0,0.0,0.019999999552965164,0.0,0.0,0.0,0.019999999552965164,0.0,0.0,0.0,0.019999999552965164,-0.12270283699035645,0.2825157940387726,9.70429801940918,0.03999999910593033,0.0,0.0,0.0,0.03999999910593033,0.0,0.0,0.0,0.03999999910593033
1778815395191165474,286296,1778815395171059934,imu_link,0.012906620278954506,0.009300452657043934,0.014988826587796211,0.9997568130493164,0.0024999999441206455,0.0,0.0,0.0,0.0024999999441206455,0.0,0.0,0.0,0.0024999999441206455,0.0,0.0,0.0,0.019999999552965164,0.0,0.0,0.0,0.019999999552965164,0.0,0.0,0.0,0.019999999552965164,-0.12270283699035645,0.3196259140968323,9.786299705505371,0.03999999910593033,0.0,0.0,0.0,0.03999999910593033,0.0,0.0,0.0,0.03999999910593033
1778815395198663300,286297,1778815395178059934,imu_link,0.013302106410264969,0.008677361533045769,0.015000554732978344,0.9997571110725403,0.0024999999441206455,0.0,0.0,0.0,0.0024999999441206455,0.0,0.0,0.0,0.0024999999441206455,0.0,0.0,0.0,0.019999999552965164,0.0,0.0,0.0,0.019999999552965164,0.0,0.0,0.0,0.019999999552965164,-0.11133037507534027,0.29448679089546204,9.731831550598145,0.03999999910593033,0.0,0.0,0.0,0.03999999910593033,0.0,0.0,0.0,0.03999999910593033
1778815395204903567,286298,1778815395183059934,imu_link,0.013302106410264969,0.008677361533045769,0.015000554732978344,0.9997571110725403,0.0024999999441206455,0.0,0.0,0.0,0.0024999999441206455,0.0,0.0,0.0,0.0024999999441206455,0.0,0.0,0.0,0.019999999552965164,0.0,0.0,0.0,0.019999999552965164,0.0,0.0,0.0,0.019999999552965164,-0.11133037507534027,0.29448679089546204,9.731831550598145,0.03999999910593033,0.0,0.0,0.0,0.03999999910593033,0.0,0.0,0.0,0.03999999910593033
1778815395210596377,286299,1778815395188059934,imu_link,0.013839705847203732,0.008160472847521305,0.015012050047516823,0.9997538924217224,0.0024999999441206455,0.0,0.0,0.0,0.0024999999441206455,0.0,0.0,0.0,0.0024999999441206455,0.0,0.0,0.0,0.019999999552965164,0.0,0.0,0.0,0.019999999552965164,0.0,0.0,0.0,0.019999999552965164,-0.12509703636169434,0.30226796865463257,9.741408348083496,0.03999999910593033,0.0,0.0,0.0,0.03999999910593033,0.0,0.0,0.0,0.03999999910593033
1778815395216886266,286300,1778815395193059934,imu_link,0.014133408665657043,0.007755911909043789,0.015020033344626427,0.999752938747406,0.0024999999441206455,0.0,0.0,0.0,0.0024999999441206455,0.0,0.0,0.0,0.0024999999441206455,0.0,0.0,0.0,0.019999999552965164,0.0,0.0,0.0,0.019999999552965164,0.0,0.0,0.0,0.019999999552965164,-0.1149216815829277,0.3010708689689636,9.761758804321289,0.03999999910593033,0.0,0.0,0.0,0.03999999910593033,0.0,0.0,0.0,0.03999999910593033
1778815395240287901,286301,1778815395238059934,imu_link,0.014406685717403889,0.007064996752887964,0.015031936578452587,0.999754011631012,0.0024999999441206455,0.0,0.0,0.0,0.0024999999441206455,0.0,0.0,0.0,0.0024999999441206455,0.0,0.0,0.0,0.019999999552965164,0.0,0.0,0.0,0.019999999552965164,0.0,0.0,0.0,0.019999999552965164,-0.11911153048276901,0.2885012924671173,9.748590469360352,0.03999999910593033,0.0,0.0,0.0,0.03999999910593033,0.0,0.0,0.0,0.03999999910593033
1778815395264228178,286302,1778815395245059934,imu_link,0.018625017255544662,0.006290260702371597,0.015071931295096874,0.9996888637542725,0.0024999999441206455,0.0,0.0,0.0,0.0024999999441206455,0.0,0.0,0.0,0.0024999999441206455,0.0,0.0,0.0,0.019999999552965164,0.0,0.0,0.0,0.019999999552965164,0.0,0.0,0.0,0.019999999552965164,-0.1280897855758667,0.3106476664543152,9.749787330627441,0.03999999910593033,0.0,0.0,0.0,0.03999999910593033,0.0,0.0,0.0,0.03999999910593033
1778815395270023821,286303,1778815395248059934,imu_link,0.01794799603521824,0.0063738166354596615,0.015066293068230152,0.9997007250785828,0.0024999999441206455,0.0,0.0,0.0,0.0024999999441206455,0.0,0.0,0.0,0.0024999999441206455,0.0,0.0,0.0,0.019999999552965164,0.0,0.0,0.0,0.019999999552965164,0.0,0.0,0.0,0.019999999552965164,-0.12749123573303223,0.29209259152412415,9.757569313049316,0.03999999910593033,0.0,0.0,0.0,0.03999999910593033,0.0,0.0,0.0,0.03999999910593033
1778815395278357058,286304,1778815395255059934,imu_link,0.017222663387656212,0.0065141841769218445,0.015059327706694603,0.9997127056121826,0.0024999999441206455,0.0,0.0,0.0,0.0024999999441206455,0.0,0.0,0.0,0.0024999999441206455,0.0,0.0,0.0,0.019999999552965164,0.0,0.0,0.0,0.019999999552965164,0.0,0.0,0.0,0.019999999552965164,-0.12330138683319092,0.3315969407558441,9.748590469360352,0.03999999910593033,0.0,0.0,0.0,0.03999999910593033,0.0,0.0,0.0,0.03999999910593033
1778815395283090215,286305,1778815395260059934,imu_link,0.017222663387656212,0.0065141841769218445,0.015059327706694603,0.9997127056121826,0.0024999999441206455,0.0,0.0,0.0,0.0024999999441206455,0.0,0.0,0.0,0.0024999999441206455,0.0,0.0,0.0,0.019999999552965164,0.0,0.0,0.0,0.019999999552965164,0.0,0.0,0.0,0.019999999552965164,-0.12330138683319092,0.3315969407558441,9.748590469360352,0.03999999910593033,0.0,0.0,0.0,0.03999999910593033,0.0,0.0,0.0,0.03999999910593033
1778815395288587696,286306,1778815395265059934,imu_link,0.016933728009462357,0.005828200373798609,0.01506939996033907,0.9997218251228333,0.0024999999441206455,0.0,0.0,0.0,0.0024999999441206455,0.0,0.0,0.0,0.0024999999441206455,0.0,0.0,0.0,0.019999999552965164,0.0,0.0,0.0,0.019999999552965164,0.0,0.0,0.0,0.019999999552965164,-0.11252747476100922,0.333991140127182,9.759364128112793,0.03999999910593033,0.0,0.0,0.0,0.03999999910593033,0.0,0.0,0.0,0.03999999910593033
1778815395297759865,286307,1778815395270059934,imu_link,0.01619124971330166,0.005827673245221376,0.015065265819430351,0.999734103679657,0.0024999999441206455,0.0,0.0,0.0,0.0024999999441206455,0.0,0.0,0.0,0.0024999999441206455,0.0,0.0,0.0,0.019999999552965164,0.0,0.0,0.0,0.019999999552965164,0.0,0.0,0.0,0.019999999552965164,-0.10893617570400238,0.2968810200691223,9.726444244384766,0.03999999910593033,0.0,0.0,0.0,0.03999999910593033,0.0,0.0,0.0,0.03999999910593033
1778815395319147380,286308,1778815395279059934,imu_link,0.01619124971330166,0.005827673245221376,0.015065265819430351,0.999734103679657,0.0024999999441206455,0.0,0.0,0.0,0.0024999999441206455,0.0,0.0,0.0,0.0024999999441206455,0.0,0.0,0.0,0.019999999552965164,0.0,0.0,0.0,0.019999999552965164,0.0,0.0,0.0,0.019999999552965164,-0.10893617570400238,0.2968810200691223,9.726444244384766,0.03999999910593033,0.0,0.0,0.0,0.03999999910593033,0.0,0.0,0.0,0.03999999910593033
1778815395341928245,286309,1778815395329059934,imu_link,0.012021105736494064,0.009392592124640942,0.01498371735215187,0.9997670650482178,0.0024999999441206455,0.0,0.0,0.0,0.0024999999441206455,0.0,0.0,0.0,0.0024999999441206455,0.0,0.0,0.0,0.019999999552965164,0.0,0.0,0.0,0.019999999552965164,0.0,0.0,0.0,0.019999999552965164,-0.11671733111143112,0.30705636739730835,9.713874816894531,0.03999999910593033,0.0,0.0,0.0,0.03999999910593033,0.0,0.0,0.0,0.03999999910593033
1778815395347463169,286310,1778815395332059934,imu_link,0.012484445236623287,0.008886558935046196,0.014994136989116669,0.9997658729553223,0.0024999999441206455,0.0,0.0,0.0,0.0024999999441206455,0.0,0.0,0.0,0.0024999999441206455,0.0,0.0,0.0,0.019999999552965164,0.0,0.0,0.0,0.019999999552965164,0.0,0.0,0.0,0.019999999552965164,-0.10953472554683685,0.2998737692832947,9.758167266845703,0.03999999910593033,0.0,0.0,0.0,0.03999999910593033,0.0,0.0,0.0,0.03999999910593033
1778815395353309345,286311,1778815395339059934,imu_link,0.01305699534714222,0.008421096950769424,0.015004985965788364,0.9997624158859253,0.0024999999441206455,0.0,0.0,0.0,0.0024999999441206455,0.0,0.0,0.0,0.0024999999441206455,0.0,0.0,0.0,0.019999999552965164,0.0,0.0,0.0,0.019999999552965164,0.0,0.0,0.0,0.019999999552965164,-0.09636661410331726,0.3315969407558441,9.70669174194336,0.03999999910593033,0.0,0.0,0.0,0.03999999910593033,0.0,0.0,0.0,0.03999999910593033
1778815395358919698,286312,1778815395344059934,imu_link,0.01305699534714222,0.008421096950769424,0.015004985965788364,0.9997624158859253,0.0024999999441206455,0.0,0.0,0.0,0.0024999999441206455,0.0,0.0,0.0,0.0024999999441206455,0.0,0.0,0.0,0.019999999552965164,0.0,0.0,0.0,0.019999999552965164,0.0,0.0,0.0,0.019999999552965164,-0.09636661410331726,0.3315969407558441,9.70669174194336,0.03999999910593033,0.0,0.0,0.0,0.03999999910593033,0.0,0.0,0.0,0.03999999910593033
1778815395367288999,286313,1778815395349059934,imu_link,0.013694999739527702,0.00803442858159542,0.015015327371656895,0.9997568726539612,0.0024999999441206455,0.0,0.0,0.0,0.0024999999441206455,0.0,0.0,0.0,0.0024999999441206455,0.0,0.0,0.0,0.019999999552965164,0.0,0.0,0.0,0.019999999552965164,0.0,0.0,0.0,0.019999999552965164,-0.1256955862045288,0.314238965511322,9.781511306762695,0.03999999910593033,0.0,0.0,0.0,0.03999999910593033,0.0,0.0,0.0,0.03999999910593033
1778815395373095630,286314,1778815395354059934,imu_link,0.014068039134144783,0.007701488211750984,0.01502284500747919,0.9997541904449463,0.0024999999441206455,0.0,0.0,0.0,0.0024999999441206455,0.0,0.0,0.0,0.0024999999441206455,0.0,0.0,0.0,0.019999999552965164,0.0,0.0,0.0,0.019999999552965164,0.0,0.0,0.0,0.019999999552965164,-0.13108253479003906,0.29209259152412415,9.730035781860352,0.03999999910593033,0.0,0.0,0.0,0.03999999910593033,0.0,0.0,0.0,0.03999999910593033
1778815395397493768,286315,1778815395363059934,imu_link,0.014541496522724628,0.0071288952603936195,0.0150345079600811,0.9997514486312866,0.0024999999441206455,0.0,0.0,0.0,0.0024999999441206455,0.0,0.0,0.0,0.0024999999441206455,0.0,0.0,0.0,0.019999999552965164,0.0,0.0,0.0,0.019999999552965164,0.0,0.0,0.0,0.019999999552965164,-0.11671733111143112,0.2998737692832947,9.741408348083496,0.03999999910593033,0.0,0.0,0.0,0.03999999910593033,0.0,0.0,0.0,0.03999999910593033
1778815395403602321,286316,1778815395366059934,imu_link,0.015194697305560112,0.006920274812728167,0.015042075887322426,0.9997431635856628,0.0024999999441206455,0.0,0.0,0.0,0.0024999999441206455,0.0,0.0,0.0,0.0024999999441206455,0.0,0.0,0.0,0.019999999552965164,0.0,0.0,0.0,0.019999999552965164,0.0,0.0,0.0,0.019999999552965164,-0.12449848651885986,0.3148375153541565,9.728240013122559,0.03999999910593033,0.0,0.0,0.0,0.03999999910593033,0.0,0.0,0.0,0.03999999910593033
1778815395425622435,286317,1778815395414059934,imu_link,0.012767438776791096,0.0032517097424715757,0.015081814490258694,0.9997951984405518,0.0024999999441206455,0.0,0.0,0.0,0.0024999999441206455,0.0,0.0,0.0,0.0024999999441206455,0.0,0.0,0.0,0.019999999552965164,0.0,0.0,0.0,0.019999999552965164,0.0,0.0,0.0,0.019999999552965164,-0.12030863016843796,0.29209259152412415,9.780912399291992,0.03999999910593033,0.0,0.0,0.0,0.03999999910593033,0.0,0.0,0.0,0.03999999910593033
1778815395433278523,286318,1778815395417059934,imu_link,0.013162081129848957,0.0038142800331115723,0.015075807459652424,0.9997881650924683,0.0024999999441206455,0.0,0.0,0.0,0.0024999999441206455,0.0,0.0,0.0,0.0024999999441206455,0.0,0.0,0.0,0.019999999552965164,0.0,0.0,0.0,0.019999999552965164,0.0,0.0,0.0,0.019999999552965164,-0.1364694982767105,0.30466216802597046,9.70549488067627,0.03999999910593033,0.0,0.0,0.0,0.03999999910593033,0.0,0.0,0.0,0.03999999910593033
1778815395438806415,286319,1778815395424059934,imu_link,0.013681508600711823,0.004338112194091082,0.015070757828652859,0.9997791647911072,0.0024999999441206455,0.0,0.0,0.0,0.0024999999441206455,0.0,0.0,0.0,0.0024999999441206455,0.0,0.0,0.0,0.019999999552965164,0.0,0.0,0.0,0.019999999552965164,0.0,0.0,0.0,0.019999999552965164,-0.12629413604736328,0.31603461503982544,9.81263542175293,0.03999999910593033,0.0,0.0,0.0,0.03999999910593033,0.0,0.0,0.0,0.03999999910593033
1778815395444161965,286320,1778815395429059934,imu_link,0.013681508600711823,0.004338112194091082,0.015070757828652859,0.9997791647911072,0.0024999999441206455,0.0,0.0,0.0,0.0024999999441206455,0.0,0.0,0.0,0.0024999999441206455,0.0,0.0,0.0,0.019999999552965164,0.0,0.0,0.0,0.019999999552965164,0.0,0.0,0.0,0.019999999552965164,-0.12629413604736328,0.31603461503982544,9.81263542175293,0.03999999910593033,0.0,0.0,0.0,0.03999999910593033,0.0,0.0,0.0,0.03999999910593033
1778815395449691618,286321,1778815395434059934,imu_link,0.014400842599570751,0.004530796315521002,0.015071077272295952,0.9997681975364685,0.0024999999441206455,0.0,0.0,0.0,0.0024999999441206455,0.0,0.0,0.0,0.0024999999441206455,0.0,0.0,0.0,0.019999999552965164,0.0,0.0,0.0,0.019999999552965164,0.0,0.0,0.0,0.019999999552965164,-0.09516951441764832,0.3262099623680115,9.716268539428711,0.03999999910593033,0.0,0.0,0.0,0.03999999910593033,0.0,0.0,0.0,0.03999999910593033
1778815395455157563,286322,1778815395439059934,imu_link,0.014537397772073746,0.005260760430246592,0.015061099082231522,0.9997627139091492,0.0024999999441206455,0.0,0.0,0.0,0.0024999999441206455,0.0,0.0,0.0,0.0024999999441206455,0.0,0.0,0.0,0.019999999552965164,0.0,0.0,0.0,0.019999999552965164,0.0,0.0,0.0,0.019999999552965164,-0.1430535465478897,0.29448679089546204,9.761758804321289,0.03999999910593033,0.0,0.0,0.0,0.03999999910593033,0.0,0.0,0.0,0.03999999910593033
1778815395479814580,286323,1778815395448059934,imu_link,0.014967539347708225,0.005515081807971001,0.015059549361467361,0.9997550845146179,0.0024999999441206455,0.0,0.0,0.0,0.0024999999441206455,0.0,0.0,0.0,0.0024999999441206455,0.0,0.0,0.0,0.019999999552965164,0.0,0.0,0.0,0.019999999552965164,0.0,0.0,0.0,0.019999999552965164,-0.10893617570400238,0.3034650683403015,9.733627319335938,0.03999999910593033,0.0,0.0,0.0,0.03999999910593033,0.0,0.0,0.0,0.03999999910593033
1778815395486150838,286324,1778815395451059934,imu_link,0.015255684964358807,0.006138206459581852,0.01505169179290533,0.9997472167015076,0.0024999999441206455,0.0,0.0,0.0,0.0024999999441206455,0.0,0.0,0.0,0.0024999999441206455,0.0,0.0,0.0,0.019999999552965164,0.0,0.0,0.0,0.019999999552965164,0.0,0.0,0.0,0.019999999552965164,-0.11791443079710007,0.3016694188117981,9.790489196777344,0.03999999910593033,0.0,0.0,0.0,0.03999999910593033,0.0,0.0,0.0,0.03999999910593033
1778815395491934535,286325,1778815395456059934,imu_link,0.015255684964358807,0.006138206459581852,0.01505169179290533,0.9997472167015076,0.0024999999441206455,0.0,0.0,0.0,0.0024999999441206455,0.0,0.0,0.0,0.0024999999441206455,0.0,0.0,0.0,0.019999999552965164,0.0,0.0,0.0,0.019999999552965164,0.0,0.0,0.0,0.019999999552965164,-0.11791443079710007,0.3016694188117981,9.790489196777344,0.03999999910593033,0.0,0.0,0.0,0.03999999910593033,0.0,0.0,0.0,0.03999999910593033
1778815395499745702,286326,1778815395461059934,imu_link,0.01564681902527809,0.006774291396141052,0.01504423562437296,0.9997371435165405,0.0024999999441206455,0.0,0.0,0.0,0.0024999999441206455,0.0,0.0,0.0,0.0024999999441206455,0.0,0.0,0.0,0.019999999552965164,0.0,0.0,0.0,0.019999999552965164,0.0,0.0,0.0,0.019999999552965164,-0.13168108463287354,0.30885201692581177,9.707889556884766,0.03999999910593033,0.0,0.0,0.0,0.03999999910593033,0.0,0.0,0.0,0.03999999910593033
1778815395505218506,286327,1778815395466059934,imu_link,0.015228934586048126,0.007048365660011768,0.01503718364983797,0.9997417330741882,0.0024999999441206455,0.0,0.0,0.0,0.0024999999441206455,0.0,0.0,0.0,0.0024999999441206455,0.0,0.0,0.0,0.019999999552965164,0.0,0.0,0.0,0.019999999552965164,0.0,0.0,0.0,0.019999999552965164,-0.13826514780521393,0.29209259152412415,9.764152526855469,0.03999999910593033,0.0,0.0,0.0,0.03999999910593033,0.0,0.0,0.0,0.03999999910593033
1778815395511747551,286328,1778815395471059934,imu_link,0.01558519247919321,0.007399011868983507,0.015034236013889313,0.9997338652610779,0.0024999999441206455,0.0,0.0,0.0,0.0024999999441206455,0.0,0.0,0.0,0.0024999999441206455,0.0,0.0,0.0,0.019999999552965164,0.0,0.0,0.0,0.019999999552965164,0.0,0.0,0.0,0.019999999552965164,-0.14006079733371735,0.3064578175544739,9.747393608093262,0.03999999910593033,0.0,0.0,0.0,0.03999999910593033,0.0,0.0,0.0,0.03999999910593033
1778815395534921768,286329,1778815395518059934,imu_link,0.01673370599746704,0.0029946707654744387,0.015111444517970085,0.9997370839118958,0.0024999999441206455,0.0,0.0,0.0,0.0024999999441206455,0.0,0.0,0.0,0.0024999999441206455,0.0,0.0,0.0,0.019999999552965164,0.0,0.0,0.0,0.019999999552965164,0.0,0.0,0.0,0.019999999552965164,-0.13168108463287354,0.3064578175544739,9.701305389404297,0.03999999910593033,0.0,0.0,0.0,0.03999999910593033,0.0,0.0,0.0,0.03999999910593033
1778815395540641490,286330,1778815395521059934,imu_link,0.016588661819696426,0.0036630136892199516,0.015099827200174332,0.9997373223304749,0.0024999999441206455,0.0,0.0,0.0,0.0024999999441206455,0.0,0.0,0.0,0.0024999999441206455,0.0,0.0,0.0,0.019999999552965164,0.0,0.0,0.0,0.019999999552965164,0.0,0.0,0.0,0.019999999552965164,-0.11851298063993454,0.314238965511322,9.750985145568848,0.03999999910593033,0.0,0.0,0.0,0.03999999910593033,0.0,0.0,0.0,0.03999999910593033
1778815395545709752,286331,1778815395528059934,imu_link,0.016480153426527977,0.00439662067219615,0.015087243169546127,0.9997364282608032,0.0024999999441206455,0.0,0.0,0.0,0.0024999999441206455,0.0,0.0,0.0,0.0024999999441206455,0.0,0.0,0.0,0.019999999552965164,0.0,0.0,0.0,0.019999999552965164,0.0,0.0,0.0,0.019999999552965164,-0.11911153048276901,0.31842881441116333,9.77133560180664,0.03999999910593033,0.0,0.0,0.0,0.03999999910593033,0.0,0.0,0.0,0.03999999910593033
1778815395551391752,286332,1778815395533059934,imu_link,0.016480153426527977,0.00439662067219615,0.015087243169546127,0.9997364282608032,0.0024999999441206455,0.0,0.0,0.0,0.0024999999441206455,0.0,0.0,0.0,0.0024999999441206455,0.0,0.0,0.0,0.019999999552965164,0.0,0.0,0.0,0.019999999552965164,0.0,0.0,0.0,0.019999999552965164,-0.11911153048276901,0.31842881441116333,9.77133560180664,0.03999999910593033,0.0,0.0,0.0,0.03999999910593033,0.0,0.0,0.0,0.03999999910593033
1778815395557204554,286333,1778815395538059934,imu_link,0.016193987801671028,0.005086508113890886,0.015074633993208408,0.9997379183769226,0.0024999999441206455,0.0,0.0,0.0,0.0024999999441206455,0.0,0.0,0.0,0.0024999999441206455,0.0,0.0,0.0,0.019999999552965164,0.0,0.0,0.0,0.019999999552965164,0.0,0.0,0.0,0.019999999552965164,-0.13706804811954498,0.2998737692832947,9.734225273132324,0.03999999910593033,0.0,0.0,0.0,0.03999999910593033,0.0,0.0,0.0,0.03999999910593033
1778815395565337871,286334,1778815395543059934,imu_link,0.016143882647156715,0.005827778019011021,0.01506232563406229,0.9997348785400391,0.0024999999441206455,0.0,0.0,0.0,0.0024999999441206455,0.0,0.0,0.0,0.0024999999441206455,0.0,0.0,0.0,0.019999999552965164,0.0,0.0,0.0,0.019999999552965164,0.0,0.0,0.0,0.019999999552965164,-0.10893617570400238,0.3166331648826599,9.750386238098145,0.03999999910593033,0.0,0.0,0.0,0.03999999910593033,0.0,0.0,0.0,0.03999999910593033
1778815395587143110,286335,1778815395552059934,imu_link,0.015649830922484398,0.005751201417297125,0.015060809440910816,0.9997432827949524,0.0024999999441206455,0.0,0.0,0.0,0.0024999999441206455,0.0,0.0,0.0,0.0024999999441206455,0.0,0.0,0.0,0.019999999552965164,0.0,0.0,0.0,0.019999999552965164,0.0,0.0,0.0,0.019999999552965164,-0.10773907601833344,0.3064578175544739,9.783905029296875,0.03999999910593033,0.0,0.0,0.0,0.03999999910593033,0.0,0.0,0.0,0.03999999910593033
1778815395594450772,286336,1778815395555059934,imu_link,0.015776412561535835,0.006426025647670031,0.01505088247358799,0.9997372627258301,0.0024999999441206455,0.0,0.0,0.0,0.0024999999441206455,0.0,0.0,0.0,0.0024999999441206455,0.0,0.0,0.0,0.019999999552965164,0.0,0.0,0.0,0.019999999552965164,0.0,0.0,0.0,0.019999999552965164,-0.12749123573303223,0.3106476664543152,9.73781681060791,0.03999999910593033,0.0,0.0,0.0,0.03999999910593033,0.0,0.0,0.0,0.03999999910593033
1778815395601889408,286337,1778815395560059934,imu_link,0.015776412561535835,0.006426025647670031,0.01505088247358799,0.9997372627258301,0.0024999999441206455,0.0,0.0,0.0,0.0024999999441206455,0.0,0.0,0.0,0.0024999999441206455,0.0,0.0,0.0,0.019999999552965164,0.0,0.0,0.0,0.019999999552965164,0.0,0.0,0.0,0.019999999552965164,-0.12749123573303223,0.3106476664543152,9.73781681060791,0.03999999910593033,0.0,0.0,0.0,0.03999999910593033,0.0,0.0,0.0,0.03999999910593033
1778815395607721194,286338,1778815395565059934,imu_link,0.015817169100046158,0.007171714678406715,0.01503929402679205,0.999731719493866,0.0024999999441206455,0.0,0.0,0.0,0.0024999999441206455,0.0,0.0,0.0,0.0024999999441206455,0.0,0.0,0.0,0.019999999552965164,0.0,0.0,0.0,0.019999999552965164,0.0,0.0,0.0,0.019999999552965164,-0.14185644686222076,0.31124621629714966,9.754575729370117,0.03999999910593033,0.0,0.0,0.0,0.03999999910593033,0.0,0.0,0.0,0.03999999910593033
1778815395631103556,286339,1778815395618059934,imu_link,0.019802257418632507,0.003915078472346067,0.015118592418730259,0.9996775984764099,0.0024999999441206455,0.0,0.0,0.0,0.0024999999441206455,0.0,0.0,0.0,0.0024999999441206455,0.0,0.0,0.0,0.019999999552965164,0.0,0.0,0.0,0.019999999552965164,0.0,0.0,0.0,0.019999999552965164,-0.12988543510437012,0.3148375153541565,9.704895973205566,0.03999999910593033,0.0,0.0,0.0,0.03999999910593033,0.0,0.0,0.0,0.03999999910593033
1778815395636769962,286340,1778815395621059934,imu_link,0.019214879721403122,0.004268618766218424,0.015109443105757236,0.9996877908706665,0.0024999999441206455,0.0,0.0,0.0,0.0024999999441206455,0.0,0.0,0.0,0.0024999999441206455,0.0,0.0,0.0,0.019999999552965164,0.0,0.0,0.0,0.019999999552965164,0.0,0.0,0.0,0.019999999552965164,-0.10953472554683685,0.32501286268234253,9.75397777557373,0.03999999910593033,0.0,0.0,0.0,0.03999999910593033,0.0,0.0,0.0,0.03999999910593033
1778815395642927854,286341,1778815395628059934,imu_link,0.018640052527189255,0.004736938048154116,0.01509812381118536,0.9996967911720276,0.0024999999441206455,0.0,0.0,0.0,0.0024999999441206455,0.0,0.0,0.0,0.0024999999441206455,0.0,0.0,0.0,0.019999999552965164,0.0,0.0,0.0,0.019999999552965164,0.0,0.0,0.0,0.019999999552965164,-0.12090718746185303,0.3232172131538391,9.722254753112793,0.03999999910593033,0.0,0.0,0.0,0.03999999910593033,0.0,0.0,0.0,0.03999999910593033
1778815395648461997,286342,1778815395633059934,imu_link,0.018640052527189255,0.004736938048154116,0.01509812381118536,0.9996967911720276,0.0024999999441206455,0.0,0.0,0.0,0.0024999999441206455,0.0,0.0,0.0,0.0024999999441206455,0.0,0.0,0.0,0.019999999552965164,0.0,0.0,0.0,0.019999999552965164,0.0,0.0,0.0,0.019999999552965164,-0.12090718746185303,0.3232172131538391,9.722254753112793,0.03999999910593033,0.0,0.0,0.0,0.03999999910593033,0.0,0.0,0.0,0.03999999910593033
1778815395653956951,286343,1778815395638059934,imu_link,0.01797279715538025,0.005073360167443752,0.015088849700987339,0.9997074604034424,0.0024999999441206455,0.0,0.0,0.0,0.0024999999441206455,0.0,0.0,0.0,0.0024999999441206455,0.0,0.0,0.0,0.019999999552965164,0.0,0.0,0.0,0.019999999552965164,0.0,0.0,0.0,0.019999999552965164,-0.12389993667602539,0.2926911413669586,9.720458984375,0.03999999910593033,0.0,0.0,0.0,0.03999999910593033,0.0,0.0,0.0,0.03999999910593033
1778815395659249553,286344,1778815395643059934,imu_link,0.017531123012304306,0.005307156592607498,0.015082505531609058,0.9997141361236572,0.0024999999441206455,0.0,0.0,0.0,0.0024999999441206455,0.0,0.0,0.0,0.0024999999441206455,0.0,0.0,0.0,0.019999999552965164,0.0,0.0,0.0,0.019999999552965164,0.0,0.0,0.0,0.019999999552965164,-0.11611878126859665,0.3100491166114807,9.728838920593262,0.03999999910593033,0.0,0.0,0.0,0.03999999910593033,0.0,0.0,0.0,0.03999999910593033
1778815395684460995,286345,1778815395652059934,imu_link,0.017176110297441483,0.005659591872245073,0.015074508264660835,0.9997186064720154,0.0024999999441206455,0.0,0.0,0.0,0.0024999999441206455,0.0,0.0,0.0,0.0024999999441206455,0.0,0.0,0.0,0.019999999552965164,0.0,0.0,0.0,0.019999999552965164,0.0,0.0,0.0,0.019999999552965164,-0.14664484560489655,0.295683890581131,9.735422134399414,0.03999999910593033,0.0,0.0,0.0,0.03999999910593033,0.0,0.0,0.0,0.03999999910593033
1778815395690146155,286346,1778815395655059934,imu_link,0.016522258520126343,0.006317619699984789,0.015059608966112137,0.9997257590293884,0.0024999999441206455,0.0,0.0,0.0,0.0024999999441206455,0.0,0.0,0.0,0.0024999999441206455,0.0,0.0,0.0,0.019999999552965164,0.0,0.0,0.0,0.019999999552965164,0.0,0.0,0.0,0.019999999552965164,-0.13826514780521393,0.30526071786880493,9.75637149810791,0.03999999910593033,0.0,0.0,0.0,0.03999999910593033,0.0,0.0,0.0,0.03999999910593033
1778815395698679243,286347,1778815395660059934,imu_link,0.016522258520126343,0.006317619699984789,0.015059608966112137,0.9997257590293884,0.0024999999441206455,0.0,0.0,0.0,0.0024999999441206455,0.0,0.0,0.0,0.0024999999441206455,0.0,0.0,0.0,0.019999999552965164,0.0,0.0,0.0,0.019999999552965164,0.0,0.0,0.0,0.019999999552965164,-0.13826514780521393,0.30526071786880493,9.75637149810791,0.03999999910593033,0.0,0.0,0.0,0.03999999910593033,0.0,0.0,0.0,0.03999999910593033
1778815395704807187,286348,1778815395665059934,imu_link,0.01631135120987892,0.005600880831480026,0.015070236288011074,0.9997333288192749,0.0024999999441206455,0.0,0.0,0.0,0.0024999999441206455,0.0,0.0,0.0,0.0024999999441206455,0.0,0.0,0.0,0.019999999552965164,0.0,0.0,0.0,0.019999999552965164,0.0,0.0,0.0,0.019999999552965164,-0.11312603205442429,0.32261866331100464,9.753378868103027,0.03999999910593033,0.0,0.0,0.0,0.03999999910593033,0.0,0.0,0.0,0.03999999910593033
1778815395725699030,286349,1778815395716059934,imu_link,0.012844064272940159,0.009126215241849422,0.014993680641055107,0.9997590780258179,0.0024999999441206455,0.0,0.0,0.0,0.0024999999441206455,0.0,0.0,0.0,0.0024999999441206455,0.0,0.0,0.0,0.019999999552965164,0.0,0.0,0.0,0.019999999552965164,0.0,0.0,0.0,0.019999999552965164,-0.13766659796237946,0.28790274262428284,9.744998931884766,0.03999999910593033,0.0,0.0,0.0,0.03999999910593033,0.0,0.0,0.0,0.03999999910593033
1778815395733146828,286350,1778815395719059934,imu_link,0.01336308941245079,0.008675375953316689,0.015004167333245277,0.9997561573982239,0.0024999999441206455,0.0,0.0,0.0,0.0024999999441206455,0.0,0.0,0.0,0.0024999999441206455,0.0,0.0,0.0,0.019999999552965164,0.0,0.0,0.0,0.019999999552965164,0.0,0.0,0.0,0.019999999552965164,-0.12270283699035645,0.31184476613998413,9.773131370544434,0.03999999910593033,0.0,0.0,0.0,0.03999999910593033,0.0,0.0,0.0,0.03999999910593033
1778815395738164604,286351,1778815395726059934,imu_link,0.013833699747920036,0.00810339953750372,0.015015869401395321,0.9997543692588806,0.0024999999441206455,0.0,0.0,0.0,0.0024999999441206455,0.0,0.0,0.0,0.0024999999441206455,0.0,0.0,0.0,0.019999999552965164,0.0,0.0,0.0,0.019999999552965164,0.0,0.0,0.0,0.019999999552965164,-0.1280897855758667,0.2914940416812897,9.715670585632324,0.03999999910593033,0.0,0.0,0.0,0.03999999910593033,0.0,0.0,0.0,0.03999999910593033
1778815395743994813,286352,1778815395731059934,imu_link,0.013833699747920036,0.00810339953750372,0.015015869401395321,0.9997543692588806,0.0024999999441206455,0.0,0.0,0.0,0.0024999999441206455,0.0,0.0,0.0,0.0024999999441206455,0.0,0.0,0.0,0.019999999552965164,0.0,0.0,0.0,0.019999999552965164,0.0,0.0,0.0,0.019999999552965164,-0.1280897855758667,0.2914940416812897,9.715670585632324,0.03999999910593033,0.0,0.0,0.0,0.03999999910593033,0.0,0.0,0.0,0.03999999910593033
1778815395749707201,286353,1778815395736059934,imu_link,0.014542745426297188,0.007867299020290375,0.0150247598066926,0.9997461438179016,0.0024999999441206455,0.0,0.0,0.0,0.0024999999441206455,0.0,0.0,0.0,0.0024999999441206455,0.0,0.0,0.0,0.019999999552965164,0.0,0.0,0.0,0.019999999552965164,0.0,0.0,0.0,0.019999999552965164,-0.14365209639072418,0.30286651849746704,9.764152526855469,0.03999999910593033,0.0,0.0,0.0,0.03999999910593033,0.0,0.0,0.0,0.03999999910593033
1778815395755182289,286354,1778815395741059934,imu_link,0.014589798636734486,0.007369626313447952,0.015032414346933365,0.9997491240501404,0.0024999999441206455,0.0,0.0,0.0,0.0024999999441206455,0.0,0.0,0.0,0.0024999999441206455,0.0,0.0,0.0,0.019999999552965164,0.0,0.0,0.0,0.019999999552965164,0.0,0.0,0.0,0.019999999552965164,-0.13287819921970367,0.2861070930957794,9.712079048156738,0.03999999910593033,0.0,0.0,0.0,0.03999999910593033,0.0,0.0,0.0,0.03999999910593033
1778815395780927038,286355,1778815395750059934,imu_link,0.015278125181794167,0.007089847698807716,0.015041445381939411,0.999740719795227,0.0024999999441206455,0.0,0.0,0.0,0.0024999999441206455,0.0,0.0,0.0,0.0024999999441206455,0.0,0.0,0.0,0.019999999552965164,0.0,0.0,0.0,0.019999999552965164,0.0,0.0,0.0,0.019999999552965164,-0.1346738487482071,0.3010708689689636,9.7976713180542,0.03999999910593033,0.0,0.0,0.0,0.03999999910593033,0.0,0.0,0.0,0.03999999910593033
1778815395785169132,286356,1778815395753059934,imu_link,0.014729616232216358,0.006675285287201405,0.015044056810438633,0.9997518062591553,0.0024999999441206455,0.0,0.0,0.0,0.0024999999441206455,0.0,0.0,0.0,0.0024999999441206455,0.0,0.0,0.0,0.019999999552965164,0.0,0.0,0.0,0.019999999552965164,0.0,0.0,0.0,0.019999999552965164,-0.11252747476100922,0.27054479718208313,9.709684371948242,0.03999999910593033,0.0,0.0,0.0,0.03999999910593033,0.0,0.0,0.0,0.03999999910593033
1778815395791086875,286357,1778815395758059934,imu_link,0.014729616232216358,0.006675285287201405,0.015044056810438633,0.9997518062591553,0.0024999999441206455,0.0,0.0,0.0,0.0024999999441206455,0.0,0.0,0.0,0.0024999999441206455,0.0,0.0,0.0,0.019999999552965164,0.0,0.0,0.0,0.019999999552965164,0.0,0.0,0.0,0.019999999552965164,-0.11252747476100922,0.27054479718208313,9.709684371948242,0.03999999910593033,0.0,0.0,0.0,0.03999999910593033,0.0,0.0,0.0,0.03999999910593033
1778815395800030405,286358,1778815395763059934,imu_link,0.0154581218957901,0.006505477242171764,0.015051272697746754,0.999741792678833,0.0024999999441206455,0.0,0.0,0.0,0.0024999999441206455,0.0,0.0,0.0,0.0024999999441206455,0.0,0.0,0.0,0.019999999552965164,0.0,0.0,0.0,0.019999999552965164,0.0,0.0,0.0,0.019999999552965164,-0.11671733111143112,0.32501286268234253,9.73661994934082,0.03999999910593033,0.0,0.0,0.0,0.03999999910593033,0.0,0.0,0.0,0.03999999910593033
1778815395805261611,286359,1778815395768059934,imu_link,0.015831544995307922,0.006172720808535814,0.0150587884709239,0.9997378587722778,0.0024999999441206455,0.0,0.0,0.0,0.0024999999441206455,0.0,0.0,0.0,0.0024999999441206455,0.0,0.0,0.0,0.019999999552965164,0.0,0.0,0.0,0.019999999552965164,0.0,0.0,0.0,0.019999999552965164,-0.11252747476100922,0.314238965511322,9.752182006835938,0.03999999910593033,0.0,0.0,0.0,0.03999999910593033,0.0,0.0,0.0,0.03999999910593033
1778815395810628024,286360,1778815395773059934,imu_link,0.015276572667062283,0.006663288921117783,0.015047679655253887,0.9997435808181763,0.0024999999441206455,0.0,0.0,0.0,0.0024999999441206455,0.0,0.0,0.0,0.0024999999441206455,0.0,0.0,0.0,0.019999999552965164,0.0,0.0,0.0,0.019999999552965164,0.0,0.0,0.0,0.019999999552965164,-0.13587094843387604,0.2885012924671173,9.749189376831055,0.03999999910593033,0.0,0.0,0.0,0.03999999910593033,0.0,0.0,0.0,0.03999999910593033
1778815395816451701,286361,1778815395778059934,imu_link,0.015276572667062283,0.006663288921117783,0.015047679655253887,0.9997435808181763,0.0024999999441206455,0.0,0.0,0.0,0.0024999999441206455,0.0,0.0,0.0,0.0024999999441206455,0.0,0.0,0.0,0.019999999552965164,0.0,0.0,0.0,0.019999999552965164,0.0,0.0,0.0,0.019999999552965164,-0.13587094843387604,0.2885012924671173,9.749189376831055,0.03999999910593033,0.0,0.0,0.0,0.03999999910593033,0.0,0.0,0.0,0.03999999910593033
1778815395839778278,286362,1778815395819059934,imu_link,0.019147813320159912,0.005025674123317003,0.015097633935511112,0.9996857047080994,0.0024999999441206455,0.0,0.0,0.0,0.0024999999441206455,0.0,0.0,0.0,0.0024999999441206455,0.0,0.0,0.0,0.019999999552965164,0.0,0.0,0.0,0.019999999552965164,0.0,0.0,0.0,0.019999999552965164,-0.12449848651885986,0.3016694188117981,9.741408348083496,0.03999999910593033,0.0,0.0,0.0,0.03999999910593033,0.0,0.0,0.0,0.03999999910593033
1778815395845366603,286363,1778815395822059934,imu_link,0.018482817336916924,0.0052016135305166245,0.015091098845005035,0.9996974468231201,0.0024999999441206455,0.0,0.0,0.0,0.0024999999441206455,0.0,0.0,0.0,0.0024999999441206455,0.0,0.0,0.0,0.019999999552965164,0.0,0.0,0.0,0.019999999552965164,0.0,0.0,0.0,0.019999999552965164,-0.1173158809542656,0.28969839215278625,9.798270225524902,0.03999999910593033,0.0,0.0,0.0,0.03999999910593033,0.0,0.0,0.0,0.03999999910593033
1778815395850925548,286364,1778815395827059934,imu_link,0.018015500158071518,0.005377370398491621,0.015085534192621708,0.9997051954269409,0.0024999999441206455,0.0,0.0,0.0,0.0024999999441206455,0.0,0.0,0.0,0.0024999999441206455,0.0,0.0,0.0,0.019999999552965164,0.0,0.0,0.0,0.019999999552965164,0.0,0.0,0.0,0.019999999552965164,-0.11851298063993454,0.3058592677116394,9.765350341796875,0.03999999910593033,0.0,0.0,0.0,0.03999999910593033,0.0,0.0,0.0,0.03999999910593033
1778815395856363533,286365,1778815395832059934,imu_link,0.018015500158071518,0.005377370398491621,0.015085534192621708,0.9997051954269409,0.0024999999441206455,0.0,0.0,0.0,0.0024999999441206455,0.0,0.0,0.0,0.0024999999441206455,0.0,0.0,0.0,0.019999999552965164,0.0,0.0,0.0,0.019999999552965164,0.0,0.0,0.0,0.019999999552965164,-0.11851298063993454,0.3058592677116394,9.765350341796875,0.03999999910593033,0.0,0.0,0.0,0.03999999910593033,0.0,0.0,0.0,0.03999999910593033
1778815395864611248,286366,1778815395837059934,imu_link,0.017376041039824486,0.0057634012773633,0.015075276605784893,0.9997143745422363,0.0024999999441206455,0.0,0.0,0.0,0.0024999999441206455,0.0,0.0,0.0,0.0024999999441206455,0.0,0.0,0.0,0.019999999552965164,0.0,0.0,0.0,0.019999999552965164,0.0,0.0,0.0,0.019999999552965164,-0.13287819921970367,0.2998737692832947,9.753378868103027,0.03999999910593033,0.0,0.0,0.0,0.03999999910593033,0.0,0.0,0.0,0.03999999910593033
1778815395870782795,286367,1778815395842059934,imu_link,0.01668340340256691,0.006031442899256945,0.0150667829439044,0.9997248649597168,0.0024999999441206455,0.0,0.0,0.0,0.0024999999441206455,0.0,0.0,0.0,0.0024999999441206455,0.0,0.0,0.0,0.019999999552965164,0.0,0.0,0.0,0.019999999552965164,0.0,0.0,0.0,0.019999999552965164,-0.12090718746185303,0.3058592677116394,9.731232643127441,0.03999999910593033,0.0,0.0,0.0,0.03999999910593033,0.0,0.0,0.0,0.03999999910593033
1778815395892285732,286368,1778815395853059934,imu_link,0.01594175584614277,0.006057460326701403,0.015062053687870502,0.9997367858886719,0.0024999999441206455,0.0,0.0,0.0,0.0024999999441206455,0.0,0.0,0.0,0.0024999999441206455,0.0,0.0,0.0,0.019999999552965164,0.0,0.0,0.0,0.019999999552965164,0.0,0.0,0.0,0.019999999552965164,-0.11372458189725876,0.3076549172401428,9.749787330627441,0.03999999910593033,0.0,0.0,0.0,0.03999999910593033,0.0,0.0,0.0,0.03999999910593033
1778815395915142521,286369,1778815395904059934,imu_link,0.014048551209270954,0.010768389329314232,0.01497531309723854,0.9997268319129944,0.0024999999441206455,0.0,0.0,0.0,0.0024999999441206455,0.0,0.0,0.0,0.0024999999441206455,0.0,0.0,0.0,0.019999999552965164,0.0,0.0,0.0,0.019999999552965164,0.0,0.0,0.0,0.019999999552965164,-0.13407529890537262,0.30466216802597046,9.745597839355469,0.03999999910593033,0.0,0.0,0.0,0.03999999910593033,0.0,0.0,0.0,0.03999999910593033
1778815395920519051,286370,1778815395907059934,imu_link,0.014404118992388248,0.010180226527154446,0.014987422153353691,0.9997277855873108,0.0024999999441206455,0.0,0.0,0.0,0.0024999999441206455,0.0,0.0,0.0,0.0024999999441206455,0.0,0.0,0.0,0.019999999552965164,0.0,0.0,0.0,0.019999999552965164,0.0,0.0,0.0,0.019999999552965164,-0.15502455830574036,0.3058592677116394,9.723451614379883,0.03999999910593033,0.0,0.0,0.0,0.03999999910593033,0.0,0.0,0.0,0.03999999910593033
1778815395926175196,286371,1778815395914059934,imu_link,0.014568229205906391,0.009456989355385303,0.014999582432210445,0.9997323751449585,0.0024999999441206455,0.0,0.0,0.0,0.0024999999441206455,0.0,0.0,0.0,0.0024999999441206455,0.0,0.0,0.0,0.019999999552965164,0.0,0.0,0.0,0.019999999552965164,0.0,0.0,0.0,0.019999999552965164,-0.12210428714752197,0.2992752194404602,9.752182006835938,0.03999999910593033,0.0,0.0,0.0,0.03999999910593033,0.0,0.0,0.0,0.03999999910593033
1778815395934195378,286372,1778815395919059934,imu_link,0.014568229205906391,0.009456989355385303,0.014999582432210445,0.9997323751449585,0.0024999999441206455,0.0,0.0,0.0,0.0024999999441206455,0.0,0.0,0.0,0.0024999999441206455,0.0,0.0,0.0,0.019999999552965164,0.0,0.0,0.0,0.019999999552965164,0.0,0.0,0.0,0.019999999552965164,-0.12210428714752197,0.2992752194404602,9.752182006835938,0.03999999910593033,0.0,0.0,0.0,0.03999999910593033,0.0,0.0,0.0,0.03999999910593033
1778815395940196552,286373,1778815395924059934,imu_link,0.014589861035346985,0.008710325695574284,0.01501076202839613,0.9997386932373047,0.0024999999441206455,0.0,0.0,0.0,0.0024999999441206455,0.0,0.0,0.0,0.0024999999441206455,0.0,0.0,0.0,0.019999999552965164,0.0,0.0,0.0,0.019999999552965164,0.0,0.0,0.0,0.019999999552965164,-0.13527239859104156,0.28730419278144836,9.741408348083496,0.03999999910593033,0.0,0.0,0.0,0.03999999910593033,0.0,0.0,0.0,0.03999999910593033
1778815395945455624,286374,1778815395929059934,imu_link,0.01452816091477871,0.008214222267270088,0.015017538331449032,0.999743640422821,0.0024999999441206455,0.0,0.0,0.0,0.0024999999441206455,0.0,0.0,0.0,0.0024999999441206455,0.0,0.0,0.0,0.019999999552965164,0.0,0.0,0.0,0.019999999552965164,0.0,0.0,0.0,0.019999999552965164,-0.1215057373046875,0.28072014451026917,9.740809440612793,0.03999999910593033,0.0,0.0,0.0,0.03999999910593033,0.0,0.0,0.0,0.03999999910593033
1778815395972264356,286375,1778815395938059934,imu_link,0.014889146201312542,0.007868257351219654,0.015025492757558823,0.9997410178184509,0.0024999999441206455,0.0,0.0,0.0,0.0024999999441206455,0.0,0.0,0.0,0.0024999999441206455,0.0,0.0,0.0,0.019999999552965164,0.0,0.0,0.0,0.019999999552965164,0.0,0.0,0.0,0.019999999552965164,-0.12988543510437012,0.31124621629714966,9.728838920593262,0.03999999910593033,0.0,0.0,0.0,0.03999999910593033,0.0,0.0,0.0,0.03999999910593033
1778815395977837266,286376,1778815395941059934,imu_link,0.014626272954046726,0.0069757308810949326,0.015036871656775475,0.9997513890266418,0.0024999999441206455,0.0,0.0,0.0,0.0024999999441206455,0.0,0.0,0.0,0.0024999999441206455,0.0,0.0,0.0,0.019999999552965164,0.0,0.0,0.0,0.019999999552965164,0.0,0.0,0.0,0.019999999552965164,-0.104147769510746,0.2783259451389313,9.733627319335938,0.03999999910593033,0.0,0.0,0.0,0.03999999910593033,0.0,0.0,0.0,0.03999999910593033
1778815395983585356,286377,1778815395946059934,imu_link,0.014626272954046726,0.0069757308810949326,0.015036871656775475,0.9997513890266418,0.0024999999441206455,0.0,0.0,0.0,0.0024999999441206455,0.0,0.0,0.0,0.0024999999441206455,0.0,0.0,0.0,0.019999999552965164,0.0,0.0,0.0,0.019999999552965164,0.0,0.0,0.0,0.019999999552965164,-0.104147769510746,0.2783259451389313,9.733627319335938,0.03999999910593033,0.0,0.0,0.0,0.03999999910593033,0.0,0.0,0.0,0.03999999910593033
1778815395988660848,286378,1778815395951059934,imu_link,0.015072138048708439,0.006378158926963806,0.015048681758344173,0.9997484683990479,0.0024999999441206455,0.0,0.0,0.0,0.0024999999441206455,0.0,0.0,0.0,0.0024999999441206455,0.0,0.0,0.0,0.019999999552965164,0.0,0.0,0.0,0.019999999552965164,0.0,0.0,0.0,0.019999999552965164,-0.10714052617549896,0.3064578175544739,9.783306121826172,0.03999999910593033,0.0,0.0,0.0,0.03999999910593033,0.0,0.0,0.0,0.03999999910593033
1778815396012074223,286379,1778815395991059934,imu_link,0.01885118894279003,0.005678839050233364,0.015082424506545067,0.9996880888938904,0.0024999999441206455,0.0,0.0,0.0,0.0024999999441206455,0.0,0.0,0.0,0.0024999999441206455,0.0,0.0,0.0,0.019999999552965164,0.0,0.0,0.0,0.019999999552965164,0.0,0.0,0.0,0.019999999552965164,-0.11791443079710007,0.3076549172401428,9.765948295593262,0.03999999910593033,0.0,0.0,0.0,0.03999999910593033,0.0,0.0,0.0,0.03999999910593033
1778815396017810832,286380,1778815395994059934,imu_link,0.01817215234041214,0.005575415212661028,0.015080715529620647,0.999701201915741,0.0024999999441206455,0.0,0.0,0.0,0.0024999999441206455,0.0,0.0,0.0,0.0024999999441206455,0.0,0.0,0.0,0.019999999552965164,0.0,0.0,0.0,0.019999999552965164,0.0,0.0,0.0,0.019999999552965164,-0.09157821536064148,0.2693476974964142,9.759364128112793,0.03999999910593033,0.0,0.0,0.0,0.03999999910593033,0.0,0.0,0.0,0.03999999910593033
1778815396023226036,286381,1778815396001059934,imu_link,0.017547184601426125,0.005974937230348587,0.015070104040205479,0.9997102618217468,0.0024999999441206455,0.0,0.0,0.0,0.0024999999441206455,0.0,0.0,0.0,0.0024999999441206455,0.0,0.0,0.0,0.019999999552965164,0.0,0.0,0.0,0.019999999552965164,0.0,0.0,0.0,0.019999999552965164,-0.13946224749088287,0.30226796865463257,9.763554573059082,0.03999999910593033,0.0,0.0,0.0,0.03999999910593033,0.0,0.0,0.0,0.03999999910593033
1778815396031061858,286382,1778815396006059934,imu_link,0.017066050320863724,0.006111685652285814,0.01506494265049696,0.9997178316116333,0.0024999999441206455,0.0,0.0,0.0,0.0024999999441206455,0.0,0.0,0.0,0.0024999999441206455,0.0,0.0,0.0,0.019999999552965164,0.0,0.0,0.0,0.019999999552965164,0.0,0.0,0.0,0.019999999552965164,-0.12629413604736328,0.2932896912097931,9.734225273132324,0.03999999910593033,0.0,0.0,0.0,0.03999999910593033,0.0,0.0,0.0,0.03999999910593033
1778815396037030694,286383,1778815396011059934,imu_link,0.01681133173406124,0.006541833281517029,0.015056069009006023,0.9997195601463318,0.0024999999441206455,0.0,0.0,0.0,0.0024999999441206455,0.0,0.0,0.0,0.0024999999441206455,0.0,0.0,0.0,0.019999999552965164,0.0,0.0,0.0,0.019999999552965164,0.0,0.0,0.0,0.019999999552965164,-0.12210428714752197,0.3321954905986786,9.798869132995605,0.03999999910593033,0.0,0.0,0.0,0.03999999910593033,0.0,0.0,0.0,0.03999999910593033
1778815396043047580,286384,1778815396016059934,imu_link,0.01631695218384266,0.006468987558037043,0.015054190531373024,0.9997283220291138,0.0024999999441206455,0.0,0.0,0.0,0.0024999999441206455,0.0,0.0,0.0,0.0024999999441206455,0.0,0.0,0.0,0.019999999552965164,0.0,0.0,0.0,0.019999999552965164,0.0,0.0,0.0,0.019999999552965164,-0.11552023142576218,0.2753331959247589,9.75637149810791,0.03999999910593033,0.0,0.0,0.0,0.03999999910593033,0.0,0.0,0.0,0.03999999910593033
1778815396067346052,286385,1778815396025059934,imu_link,0.01631695218384266,0.006468987558037043,0.015054190531373024,0.9997283220291138,0.0024999999441206455,0.0,0.0,0.0,0.0024999999441206455,0.0,0.0,0.0,0.0024999999441206455,0.0,0.0,0.0,0.019999999552965164,0.0,0.0,0.0,0.019999999552965164,0.0,0.0,0.0,0.019999999552965164,-0.11552023142576218,0.2753331959247589,9.75637149810791,0.03999999910593033,0.0,0.0,0.0,0.03999999910593033,0.0,0.0,0.0,0.03999999910593033
1778815396088616899,286386,1778815396078059934,imu_link,0.014165357686579227,0.011824444867670536,0.014952638186514378,0.999713659286499,0.0024999999441206455,0.0,0.0,0.0,0.0024999999441206455,0.0,0.0,0.0,0.0024999999441206455,0.0,0.0,0.0,0.019999999552965164,0.0,0.0,0.0,0.019999999552965164,0.0,0.0,0.0,0.019999999552965164,-0.14245499670505524,0.3106476664543152,9.711480140686035,0.03999999910593033,0.0,0.0,0.0,0.03999999910593033,0.0,0.0,0.0,0.03999999910593033
1778815396095541552,286387,1778815396081059934,imu_link,0.014299653470516205,0.011148776859045029,0.014963885769248009,0.9997193217277527,0.0024999999441206455,0.0,0.0,0.0,0.0024999999441206455,0.0,0.0,0.0,0.0024999999441206455,0.0,0.0,0.0,0.019999999552965164,0.0,0.0,0.0,0.019999999552965164,0.0,0.0,0.0,0.019999999552965164,-0.14365209639072418,0.29628247022628784,9.790489196777344,0.03999999910593033,0.0,0.0,0.0,0.03999999910593033,0.0,0.0,0.0,0.03999999910593033
1778815396101880907,286388,1778815396088059934,imu_link,0.014385906048119068,0.010413357987999916,0.014975464902818203,0.999725878238678,0.0024999999441206455,0.0,0.0,0.0,0.0024999999441206455,0.0,0.0,0.0,0.0024999999441206455,0.0,0.0,0.0,0.019999999552965164,0.0,0.0,0.0,0.019999999552965164,0.0,0.0,0.0,0.019999999552965164,-0.10714052617549896,0.2932896912097931,9.758766174316406,0.03999999910593033,0.0,0.0,0.0,0.03999999910593033,0.0,0.0,0.0,0.03999999910593033
1778815396107571733,286389,1778815396093059934,imu_link,0.014385906048119068,0.010413357987999916,0.014975464902818203,0.999725878238678,0.0024999999441206455,0.0,0.0,0.0,0.0024999999441206455,0.0,0.0,0.0,0.0024999999441206455,0.0,0.0,0.0,0.019999999552965164,0.0,0.0,0.0,0.019999999552965164,0.0,0.0,0.0,0.019999999552965164,-0.10714052617549896,0.2932896912097931,9.758766174316406,0.03999999910593033,0.0,0.0,0.0,0.03999999910593033,0.0,0.0,0.0,0.03999999910593033
1778815396112953043,286390,1778815396098059934,imu_link,0.014318990521132946,0.009669867344200611,0.014985589310526848,0.999734103679657,0.0024999999441206455,0.0,0.0,0.0,0.0024999999441206455,0.0,0.0,0.0,0.0024999999441206455,0.0,0.0,0.0,0.019999999552965164,0.0,0.0,0.0,0.019999999552965164,0.0,0.0,0.0,0.019999999552965164,-0.14724339544773102,0.2783259451389313,9.75397777557373,0.03999999910593033,0.0,0.0,0.0,0.03999999910593033,0.0,0.0,0.0,0.03999999910593033
1778815396118062281,286391,1778815396103059934,imu_link,0.01425892859697342,0.008929770439863205,0.014995722100138664,0.9997416734695435,0.0024999999441206455,0.0,0.0,0.0,0.0024999999441206455,0.0,0.0,0.0,0.0024999999441206455,0.0,0.0,0.0,0.019999999552965164,0.0,0.0,0.0,0.019999999552965164,0.0,0.0,0.0,0.019999999552965164,-0.11851298063993454,0.2759317457675934,9.755773544311523,0.03999999910593033,0.0,0.0,0.0,0.03999999910593033,0.0,0.0,0.0,0.03999999910593033
1778815396143216763,286392,1778815396112059934,imu_link,0.014380263164639473,0.008444607257843018,0.01500376220792532,0.9997440576553345,0.0024999999441206455,0.0,0.0,0.0,0.0024999999441206455,0.0,0.0,0.0,0.0024999999441206455,0.0,0.0,0.0,0.019999999552965164,0.0,0.0,0.0,0.019999999552965164,0.0,0.0,0.0,0.019999999552965164,-0.10055647045373917,0.29807811975479126,9.782708168029785,0.03999999910593033,0.0,0.0,0.0,0.03999999910593033,0.0,0.0,0.0,0.03999999910593033
1778815396149037272,286393,1778815396115059934,imu_link,0.014746738597750664,0.007863515056669712,0.015015204437077045,0.9997432231903076,0.0024999999441206455,0.0,0.0,0.0,0.0024999999441206455,0.0,0.0,0.0,0.0024999999441206455,0.0,0.0,0.0,0.019999999552965164,0.0,0.0,0.0,0.019999999552965164,0.0,0.0,0.0,0.019999999552965164,-0.1215057373046875,0.30705636739730835,9.757569313049316,0.03999999910593033,0.0,0.0,0.0,0.03999999910593033,0.0,0.0,0.0,0.03999999910593033
1778815396155040012,286394,1778815396120059934,imu_link,0.014746738597750664,0.007863515056669712,0.015015204437077045,0.9997432231903076,0.0024999999441206455,0.0,0.0,0.0,0.0024999999441206455,0.0,0.0,0.0,0.0024999999441206455,0.0,0.0,0.0,0.019999999552965164,0.0,0.0,0.0,0.019999999552965164,0.0,0.0,0.0,0.019999999552965164,-0.1215057373046875,0.30705636739730835,9.757569313049316,0.03999999910593033,0.0,0.0,0.0,0.03999999910593033,0.0,0.0,0.0,0.03999999910593033
1778815396161819851,286395,1778815396125059934,imu_link,0.01498966384679079,0.007162418216466904,0.015027479268610477,0.999744713306427,0.0024999999441206455,0.0,0.0,0.0,0.0024999999441206455,0.0,0.0,0.0,0.0024999999441206455,0.0,0.0,0.0,0.019999999552965164,0.0,0.0,0.0,0.019999999552965164,0.0,0.0,0.0,0.019999999552965164,-0.12928688526153564,0.2968810200691223,9.761758804321289,0.03999999910593033,0.0,0.0,0.0,0.03999999910593033,0.0,0.0,0.0,0.03999999910593033
1778815396184090540,286396,1778815396164059934,imu_link,0.01602833904325962,0.0035597793757915497,0.015088970772922039,0.9997470378875732,0.0024999999441206455,0.0,0.0,0.0,0.0024999999441206455,0.0,0.0,0.0,0.0024999999441206455,0.0,0.0,0.0,0.019999999552965164,0.0,0.0,0.0,0.019999999552965164,0.0,0.0,0.0,0.019999999552965164,-0.1173158809542656,0.30047231912612915,9.782109260559082,0.03999999910593033,0.0,0.0,0.0,0.03999999910593033,0.0,0.0,0.0,0.03999999910593033
1778815396189593269,286397,1778815396167059934,imu_link,0.015779638662934303,0.004201898816972971,0.015077815391123295,0.999748706817627,0.0024999999441206455,0.0,0.0,0.0,0.0024999999441206455,0.0,0.0,0.0,0.0024999999441206455,0.0,0.0,0.0,0.019999999552965164,0.0,0.0,0.0,0.019999999552965164,0.0,0.0,0.0,0.019999999552965164,-0.13347674906253815,0.2885012924671173,9.757569313049316,0.03999999910593033,0.0,0.0,0.0,0.03999999910593033,0.0,0.0,0.0,0.03999999910593033
1778815396198071083,286398,1778815396174059934,imu_link,0.015505010262131691,0.004889907781034708,0.015065821819007397,0.9997500777244568,0.0024999999441206455,0.0,0.0,0.0,0.0024999999441206455,0.0,0.0,0.0,0.0024999999441206455,0.0,0.0,0.0,0.019999999552965164,0.0,0.0,0.0,0.019999999552965164,0.0,0.0,0.0,0.019999999552965164,-0.13407529890537262,0.28730419278144836,9.748590469360352,0.03999999910593033,0.0,0.0,0.0,0.03999999910593033,0.0,0.0,0.0,0.03999999910593033
1778815396202724508,286399,1778815396179059934,imu_link,0.015088304877281189,0.005166120361536741,0.01505957543849945,0.9997550845146179,0.0024999999441206455,0.0,0.0,0.0,0.0024999999441206455,0.0,0.0,0.0,0.0024999999441206455,0.0,0.0,0.0,0.019999999552965164,0.0,0.0,0.0,0.019999999552965164,0.0,0.0,0.0,0.019999999552965164,-0.10594342648983002,0.28072014451026917,9.726444244384766,0.03999999910593033,0.0,0.0,0.0,0.03999999910593033,0.0,0.0,0.0,0.03999999910593033
1778815396208387634,286400,1778815396184059934,imu_link,0.015088304877281189,0.005166120361536741,0.01505957543849945,0.9997550845146179,0.0024999999441206455,0.0,0.0,0.0,0.0024999999441206455,0.0,0.0,0.0,0.0024999999441206455,0.0,0.0,0.0,0.019999999552965164,0.0,0.0,0.0,0.019999999552965164,0.0,0.0,0.0,0.019999999552965164,-0.10594342648983002,0.28072014451026917,9.726444244384766,0.03999999910593033,0.0,0.0,0.0,0.03999999910593033,0.0,0.0,0.0,0.03999999910593033
1778815396214201580,286401,1778815396189059934,imu_link,0.01496359333395958,0.005903029814362526,0.015047778375446796,0.9997529983520508,0.0024999999441206455,0.0,0.0,0.0,0.0024999999441206455,0.0,0.0,0.0,0.0024999999441206455,0.0,0.0,0.0,0.019999999552965164,0.0,0.0,0.0,0.019999999552965164,0.0,0.0,0.0,0.019999999552965164,-0.13347674906253815,0.2914940416812897,9.793481826782227,0.03999999910593033,0.0,0.0,0.0,0.03999999910593033,0.0,0.0,0.0,0.03999999910593033
1778815396238778936,286402,1778815396198059934,imu_link,0.015551923774182796,0.006355874240398407,0.015044298022985458,0.9997413158416748,0.0024999999441206455,0.0,0.0,0.0,0.0024999999441206455,0.0,0.0,0.0,0.0024999999441206455,0.0,0.0,0.0,0.019999999552965164,0.0,0.0,0.0,0.019999999552965164,0.0,0.0,0.0,0.019999999552965164,-0.12330138683319092,0.3100491166114807,9.72404956817627,0.03999999910593033,0.0,0.0,0.0,0.03999999910593033,0.0,0.0,0.0,0.03999999910593033
1778815396262344343,286403,1778815396249059934,imu_link,0.010597668588161469,0.005240390542894602,0.015031230635941029,0.9998128414154053,0.0024999999441206455,0.0,0.0,0.0,0.0024999999441206455,0.0,0.0,0.0,0.0024999999441206455,0.0,0.0,0.0,0.019999999552965164,0.0,0.0,0.0,0.019999999552965164,0.0,0.0,0.0,0.019999999552965164,-0.1173158809542656,0.29448679089546204,9.77672290802002,0.03999999910593033,0.0,0.0,0.0,0.03999999910593033,0.0,0.0,0.0,0.03999999910593033
1778815396268155679,286404,1778815396252059934,imu_link,0.011278442107141018,0.005341637879610062,0.015033604577183723,0.9998047947883606,0.0024999999441206455,0.0,0.0,0.0,0.0024999999441206455,0.0,0.0,0.0,0.0024999999441206455,0.0,0.0,0.0,0.019999999552965164,0.0,0.0,0.0,0.019999999552965164,0.0,0.0,0.0,0.019999999552965164,-0.11432313174009323,0.32441431283950806,9.712079048156738,0.03999999910593033,0.0,0.0,0.0,0.03999999910593033,0.0,0.0,0.0,0.03999999910593033
1778815396276064920,286405,1778815396257059934,imu_link,0.011278442107141018,0.005341637879610062,0.015033604577183723,0.9998047947883606,0.0024999999441206455,0.0,0.0,0.0,0.0024999999441206455,0.0,0.0,0.0,0.0024999999441206455,0.0,0.0,0.0,0.019999999552965164,0.0,0.0,0.0,0.019999999552965164,0.0,0.0,0.0,0.019999999552965164,-0.11432313174009323,0.32441431283950806,9.712079048156738,0.03999999910593033,0.0,0.0,0.0,0.03999999910593033,0.0,0.0,0.0,0.03999999910593033
1778815396282379259,286406,1778815396262059934,imu_link,0.011975294910371304,0.005609024781733751,0.015034168027341366,0.9997952580451965,0.0024999999441206455,0.0,0.0,0.0,0.0024999999441206455,0.0,0.0,0.0,0.0024999999441206455,0.0,0.0,0.0,0.019999999552965164,0.0,0.0,0.0,0.019999999552965164,0.0,0.0,0.0,0.019999999552965164,-0.13347674906253815,0.3106476664543152,9.719261169433594,0.03999999910593033,0.0,0.0,0.0,0.03999999910593033,0.0,0.0,0.0,0.03999999910593033
1778815396288089910,286407,1778815396267059934,imu_link,0.012456059455871582,0.005745934322476387,0.01503512542694807,0.9997886419296265,0.0024999999441206455,0.0,0.0,0.0,0.0024999999441206455,0.0,0.0,0.0,0.0024999999441206455,0.0,0.0,0.0,0.019999999552965164,0.0,0.0,0.0,0.019999999552965164,0.0,0.0,0.0,0.019999999552965164,-0.12389993667602539,0.30226796865463257,9.750386238098145,0.03999999910593033,0.0,0.0,0.0,0.03999999910593033,0.0,0.0,0.0,0.03999999910593033
1778815396296129447,286408,1778815396272059934,imu_link,0.01316176075488329,0.005978168919682503,0.015036131255328655,0.9997782111167908,0.0024999999441206455,0.0,0.0,0.0,0.0024999999441206455,0.0,0.0,0.0,0.0024999999441206455,0.0,0.0,0.0,0.019999999552965164,0.0,0.0,0.0,0.019999999552965164,0.0,0.0,0.0,0.019999999552965164,-0.12689268589019775,0.3034650683403015,9.777320861816406,0.03999999910593033,0.0,0.0,0.0,0.03999999910593033,0.0,0.0,0.0,0.03999999910593033
1778815396319335660,286409,1778815396283059934,imu_link,0.013878476805984974,0.006171746179461479,0.015037705190479755,0.9997673034667969,0.0024999999441206455,0.0,0.0,0.0,0.0024999999441206455,0.0,0.0,0.0,0.0024999999441206455,0.0,0.0,0.0,0.019999999552965164,0.0,0.0,0.0,0.019999999552965164,0.0,0.0,0.0,0.019999999552965164,-0.12449848651885986,0.30466216802597046,9.754575729370117,0.03999999910593033,0.0,0.0,0.0,0.03999999910593033,0.0,0.0,0.0,0.03999999910593033
1778815396324472434,286410,1778815396286059934,imu_link,0.014440534636378288,0.006567133590579033,0.015035528689622879,0.9997568130493164,0.0024999999441206455,0.0,0.0,0.0,0.0024999999441206455,0.0,0.0,0.0,0.0024999999441206455,0.0,0.0,0.0,0.019999999552965164,0.0,0.0,0.0,0.019999999552965164,0.0,0.0,0.0,0.019999999552965164,-0.1256955862045288,0.2861070930957794,9.732429504394531,0.03999999910593033,0.0,0.0,0.0,0.03999999910593033,0.0,0.0,0.0,0.03999999910593033
1778815396347931454,286411,1778815396334059934,imu_link,0.011154212057590485,0.003656104439869523,0.015056840144097805,0.999813437461853,0.0024999999441206455,0.0,0.0,0.0,0.0024999999441206455,0.0,0.0,0.0,0.0024999999441206455,0.0,0.0,0.0,0.019999999552965164,0.0,0.0,0.0,0.019999999552965164,0.0,0.0,0.0,0.019999999552965164,-0.11252747476100922,0.26994624733924866,9.718064308166504,0.03999999910593033,0.0,0.0,0.0,0.03999999910593033,0.0,0.0,0.0,0.03999999910593033
1778815396354761068,286412,1778815396337059934,imu_link,0.011687096208333969,0.004089659545570612,0.015053835697472095,0.999805748462677,0.0024999999441206455,0.0,0.0,0.0,0.0024999999441206455,0.0,0.0,0.0,0.0024999999441206455,0.0,0.0,0.0,0.019999999552965164,0.0,0.0,0.0,0.019999999552965164,0.0,0.0,0.0,0.019999999552965164,-0.13407529890537262,0.30226796865463257,9.744400978088379,0.03999999910593033,0.0,0.0,0.0,0.03999999910593033,0.0,0.0,0.0,0.03999999910593033
1778815396360334952,286413,1778815396342059934,imu_link,0.011687096208333969,0.004089659545570612,0.015053835697472095,0.999805748462677,0.0024999999441206455,0.0,0.0,0.0,0.0024999999441206455,0.0,0.0,0.0,0.0024999999441206455,0.0,0.0,0.0,0.019999999552965164,0.0,0.0,0.0,0.019999999552965164,0.0,0.0,0.0,0.019999999552965164,-0.13407529890537262,0.30226796865463257,9.744400978088379,0.03999999910593033,0.0,0.0,0.0,0.03999999910593033,0.0,0.0,0.0,0.03999999910593033
1778815396367199654,286414,1778815396347059934,imu_link,0.012391626834869385,0.004336717072874308,0.015053685754537582,0.9997961521148682,0.0024999999441206455,0.0,0.0,0.0,0.0024999999441206455,0.0,0.0,0.0,0.0024999999441206455,0.0,0.0,0.0,0.019999999552965164,0.0,0.0,0.0,0.019999999552965164,0.0,0.0,0.0,0.019999999552965164,-0.10833762586116791,0.32501286268234253,9.754575729370117,0.03999999910593033,0.0,0.0,0.0,0.03999999910593033,0.0,0.0,0.0,0.03999999910593033
1778815396372321714,286415,1778815396352059934,imu_link,0.012879990041255951,0.00444340193644166,0.015054382383823395,0.9997895359992981,0.0024999999441206455,0.0,0.0,0.0,0.0024999999441206455,0.0,0.0,0.0,0.0024999999441206455,0.0,0.0,0.0,0.019999999552965164,0.0,0.0,0.0,0.019999999552965164,0.0,0.0,0.0,0.019999999552965164,-0.09696516394615173,0.32202011346817017,9.747393608093262,0.03999999910593033,0.0,0.0,0.0,0.03999999910593033,0.0,0.0,0.0,0.03999999910593033
1778815396378733429,286416,1778815396359059934,imu_link,0.013551704585552216,0.00475918035954237,0.01505314465612173,0.9997792840003967,0.0024999999441206455,0.0,0.0,0.0,0.0024999999441206455,0.0,0.0,0.0,0.0024999999441206455,0.0,0.0,0.0,0.019999999552965164,0.0,0.0,0.0,0.019999999552965164,0.0,0.0,0.0,0.019999999552965164,-0.10295066982507706,0.2968810200691223,9.742605209350586,0.03999999910593033,0.0,0.0,0.0,0.03999999910593033,0.0,0.0,0.0,0.03999999910593033
1778815396402216046,286417,1778815396368059934,imu_link,0.014087479561567307,0.005273452494293451,0.015048574656248093,0.9997693300247192,0.0024999999441206455,0.0,0.0,0.0,0.0024999999441206455,0.0,0.0,0.0,0.0024999999441206455,0.0,0.0,0.0,0.019999999552965164,0.0,0.0,0.0,0.019999999552965164,0.0,0.0,0.0,0.019999999552965164,-0.11671733111143112,0.295683890581131,9.752182006835938,0.03999999910593033,0.0,0.0,0.0,0.03999999910593033,0.0,0.0,0.0,0.03999999910593033
1778815396408030900,286418,1778815396371059934,imu_link,0.01451833639293909,0.005801697727292776,0.015043268911540508,0.9997603893280029,0.0024999999441206455,0.0,0.0,0.0,0.0024999999441206455,0.0,0.0,0.0,0.0024999999441206455,0.0,0.0,0.0,0.019999999552965164,0.0,0.0,0.0,0.019999999552965164,0.0,0.0,0.0,0.019999999552965164,-0.12210428714752197,0.29628247022628784,9.764751434326172,0.03999999910593033,0.0,0.0,0.0,0.03999999910593033,0.0,0.0,0.0,0.03999999910593033
1778815396431265489,286419,1778815396417059934,imu_link,0.016846932470798492,0.009288624860346317,0.015005207620561123,0.9996980428695679,0.0024999999441206455,0.0,0.0,0.0,0.0024999999441206455,0.0,0.0,0.0,0.0024999999441206455,0.0,0.0,0.0,0.019999999552965164,0.0,0.0,0.0,0.019999999552965164,0.0,0.0,0.0,0.019999999552965164,-0.11671733111143112,0.2902969419956207,9.750985145568848,0.03999999910593033,0.0,0.0,0.0,0.03999999910593033,0.0,0.0,0.0,0.03999999910593033
1778815396436847677,286420,1778815396420059934,imu_link,0.016477923840284348,0.008704761043190956,0.015011787414550781,0.9997093081474304,0.0024999999441206455,0.0,0.0,0.0,0.0024999999441206455,0.0,0.0,0.0,0.0024999999441206455,0.0,0.0,0.0,0.019999999552965164,0.0,0.0,0.0,0.019999999552965164,0.0,0.0,0.0,0.019999999552965164,-0.12210428714752197,0.2968810200691223,9.791088104248047,0.03999999910593033,0.0,0.0,0.0,0.03999999910593033,0.0,0.0,0.0,0.03999999910593033
1778815396442429926,286421,1778815396425059934,imu_link,0.016477923840284348,0.008704761043190956,0.015011787414550781,0.9997093081474304,0.0024999999441206455,0.0,0.0,0.0,0.0024999999441206455,0.0,0.0,0.0,0.0024999999441206455,0.0,0.0,0.0,0.019999999552965164,0.0,0.0,0.0,0.019999999552965164,0.0,0.0,0.0,0.019999999552965164,-0.12210428714752197,0.2968810200691223,9.791088104248047,0.03999999910593033,0.0,0.0,0.0,0.03999999910593033,0.0,0.0,0.0,0.03999999910593033
1778815396447803767,286422,1778815396430059934,imu_link,0.015843817964196205,0.008311075158417225,0.015012959949672222,0.999722957611084,0.0024999999441206455,0.0,0.0,0.0,0.0024999999441206455,0.0,0.0,0.0,0.0024999999441206455,0.0,0.0,0.0,0.019999999552965164,0.0,0.0,0.0,0.019999999552965164,0.0,0.0,0.0,0.019999999552965164,-0.1346738487482071,0.2735375463962555,9.758167266845703,0.03999999910593033,0.0,0.0,0.0,0.03999999910593033,0.0,0.0,0.0,0.03999999910593033
1778815396453329623,286423,1778815396435059934,imu_link,0.015500359237194061,0.007948748767375946,0.01501596998423338,0.999731183052063,0.0024999999441206455,0.0,0.0,0.0,0.0024999999441206455,0.0,0.0,0.0,0.0024999999441206455,0.0,0.0,0.0,0.019999999552965164,0.0,0.0,0.0,0.019999999552965164,0.0,0.0,0.0,0.019999999552965164,-0.1304839849472046,0.2849099934101105,9.737217903137207,0.03999999910593033,0.0,0.0,0.0,0.03999999910593033,0.0,0.0,0.0,0.03999999910593033
1778815396459722846,286424,1778815396440059934,imu_link,0.015860337764024734,0.007299363613128662,0.01502888835966587,0.9997303485870361,0.0024999999441206455,0.0,0.0,0.0,0.0024999999441206455,0.0,0.0,0.0,0.0024999999441206455,0.0,0.0,0.0,0.019999999552965164,0.0,0.0,0.0,0.019999999552965164,0.0,0.0,0.0,0.019999999552965164,-0.13287819921970367,0.31543606519699097,9.783306121826172,0.03999999910593033,0.0,0.0,0.0,0.03999999910593033,0.0,0.0,0.0,0.03999999910593033
1778815396484981164,286425,1778815396451059934,imu_link,0.016023067757487297,0.006574639584869146,0.015041607432067394,0.9997325539588928,0.0024999999441206455,0.0,0.0,0.0,0.0024999999441206455,0.0,0.0,0.0,0.0024999999441206455,0.0,0.0,0.0,0.019999999552965164,0.0,0.0,0.0,0.019999999552965164,0.0,0.0,0.0,0.019999999552965164,-0.10833762586116791,0.3172317147254944,9.73781681060791,0.03999999910593033,0.0,0.0,0.0,0.03999999910593033,0.0,0.0,0.0,0.03999999910593033
1778815396490550068,286426,1778815396454059934,imu_link,0.015695009380578995,0.005976650398224592,0.015049166977405548,0.9997413754463196,0.0024999999441206455,0.0,0.0,0.0,0.0024999999441206455,0.0,0.0,0.0,0.0024999999441206455,0.0,0.0,0.0,0.019999999552965164,0.0,0.0,0.0,0.019999999552965164,0.0,0.0,0.0,0.019999999552965164,-0.10594342648983002,0.30466216802597046,9.757569313049316,0.03999999910593033,0.0,0.0,0.0,0.03999999910593033,0.0,0.0,0.0,0.03999999910593033
1778815396516706254,286427,1778815396500059934,imu_link,0.015119633637368679,0.010130169801414013,0.014980166219174862,0.9997178316116333,0.0024999999441206455,0.0,0.0,0.0,0.0024999999441206455,0.0,0.0,0.0,0.0024999999441206455,0.0,0.0,0.0,0.019999999552965164,0.0,0.0,0.0,0.019999999552965164,0.0,0.0,0.0,0.019999999552965164,-0.11552023142576218,0.3076549172401428,9.755773544311523,0.03999999910593033,0.0,0.0,0.0,0.03999999910593033,0.0,0.0,0.0,0.03999999910593033
1778815396522178114,286428,1778815396503059934,imu_link,0.015255790203809738,0.009451773017644882,0.014991872943937778,0.9997222423553467,0.0024999999441206455,0.0,0.0,0.0,0.0024999999441206455,0.0,0.0,0.0,0.0024999999441206455,0.0,0.0,0.0,0.019999999552965164,0.0,0.0,0.0,0.019999999552965164,0.0,0.0,0.0,0.019999999552965164,-0.11611878126859665,0.31184476613998413,9.740809440612793,0.03999999910593033,0.0,0.0,0.0,0.03999999910593033,0.0,0.0,0.0,0.03999999910593033
1778815396530239201,286429,1778815396508059934,imu_link,0.015255790203809738,0.009451773017644882,0.014991872943937778,0.9997222423553467,0.0024999999441206455,0.0,0.0,0.0,0.0024999999441206455,0.0,0.0,0.0,0.0024999999441206455,0.0,0.0,0.0,0.019999999552965164,0.0,0.0,0.0,0.019999999552965164,0.0,0.0,0.0,0.019999999552965164,-0.11611878126859665,0.31184476613998413,9.740809440612793,0.03999999910593033,0.0,0.0,0.0,0.03999999910593033,0.0,0.0,0.0,0.03999999910593033
1778815396535471210,286430,1778815396513059934,imu_link,0.015350336208939552,0.008711077272891998,0.015004146844148636,0.9997273683547974,0.0024999999441206455,0.0,0.0,0.0,0.0024999999441206455,0.0,0.0,0.0,0.0024999999441206455,0.0,0.0,0.0,0.019999999552965164,0.0,0.0,0.0,0.019999999552965164,0.0,0.0,0.0,0.019999999552965164,-0.10354921966791153,0.3082534670829773,9.729436874389648,0.03999999910593033,0.0,0.0,0.0,0.03999999910593033,0.0,0.0,0.0,0.03999999910593033
1778815396541442371,286431,1778815396518059934,imu_link,0.01535111851990223,0.007968492805957794,0.015015644021332264,0.9997332692146301,0.0024999999441206455,0.0,0.0,0.0,0.0024999999441206455,0.0,0.0,0.0,0.0024999999441206455,0.0,0.0,0.0,0.019999999552965164,0.0,0.0,0.0,0.019999999552965164,0.0,0.0,0.0,0.019999999552965164,-0.0975637212395668,0.3010708689689636,9.751583099365234,0.03999999910593033,0.0,0.0,0.0,0.03999999910593033,0.0,0.0,0.0,0.03999999910593033
1778815396547960698,286432,1778815396525059934,imu_link,0.014827458187937737,0.007442091591656208,0.015019731596112251,0.9997451901435852,0.0024999999441206455,0.0,0.0,0.0,0.0024999999441206455,0.0,0.0,0.0,0.0024999999441206455,0.0,0.0,0.0,0.019999999552965164,0.0,0.0,0.0,0.019999999552965164,0.0,0.0,0.0,0.019999999552965164,-0.132279634475708,0.2825157940387726,9.741408348083496,0.03999999910593033,0.0,0.0,0.0,0.03999999910593033,0.0,0.0,0.0,0.03999999910593033
1778815396572549424,286433,1778815396534059934,imu_link,0.014827458187937737,0.007442091591656208,0.015019731596112251,0.9997451901435852,0.0024999999441206455,0.0,0.0,0.0,0.0024999999441206455,0.0,0.0,0.0,0.0024999999441206455,0.0,0.0,0.0,0.019999999552965164,0.0,0.0,0.0,0.019999999552965164,0.0,0.0,0.0,0.019999999552965164,-0.132279634475708,0.2825157940387726,9.741408348083496,0.03999999910593033,0.0,0.0,0.0,0.03999999910593033,0.0,0.0,0.0,0.03999999910593033
1778815396577708259,286434,1778815396536198965,imu_link,0.01598576456308365,0.007241377606987953,0.015031082555651665,0.9997286796569824,0.0024999999441206455,0.0,0.0,0.0,0.0024999999441206455,0.0,0.0,0.0,0.0024999999441206455,0.0,0.0,0.0,0.019999999552965164,0.0,0.0,0.0,0.019999999552965164,0.0,0.0,0.0,0.019999999552965164,-0.13946224749088287,0.2992752194404602,9.75637149810791,0.03999999910593033,0.0,0.0,0.0,0.03999999910593033,0.0,0.0,0.0,0.03999999910593033
1778815396600955492,286435,1778815396584198965,imu_link,0.016489436849951744,0.011609145440161228,0.014964163303375244,0.9996803402900696,0.0024999999441206455,0.0,0.0,0.0,0.0024999999441206455,0.0,0.0,0.0,0.0024999999441206455,0.0,0.0,0.0,0.019999999552965164,0.0,0.0,0.0,0.019999999552965164,0.0,0.0,0.0,0.019999999552965164,-0.15502455830574036,0.31543606519699097,9.719261169433594,0.03999999910593033,0.0,0.0,0.0,0.03999999910593033,0.0,0.0,0.0,0.03999999910593033
1778815396606514664,286436,1778815396587198965,imu_link,0.016288509592413902,0.010946827009320259,0.014972914941608906,0.9996910095214844,0.0024999999441206455,0.0,0.0,0.0,0.0024999999441206455,0.0,0.0,0.0,0.0024999999441206455,0.0,0.0,0.0,0.019999999552965164,0.0,0.0,0.0,0.019999999552965164,0.0,0.0,0.0,0.019999999552965164,-0.10953472554683685,0.2890998423099518,9.746794700622559,0.03999999910593033,0.0,0.0,0.0,0.03999999910593033,0.0,0.0,0.0,0.03999999910593033
1778815396611959996,286437,1778815396592198965,imu_link,0.016288509592413902,0.010946827009320259,0.014972914941608906,0.9996910095214844,0.0024999999441206455,0.0,0.0,0.0,0.0024999999441206455,0.0,0.0,0.0,0.0024999999441206455,0.0,0.0,0.0,0.019999999552965164,0.0,0.0,0.0,0.019999999552965164,0.0,0.0,0.0,0.019999999552965164,-0.10953472554683685,0.2890998423099518,9.746794700622559,0.03999999910593033,0.0,0.0,0.0,0.03999999910593033,0.0,0.0,0.0,0.03999999910593033
1778815396617147433,286438,1778815396597198965,imu_link,0.01618991792201996,0.010206340812146664,0.014984040521085262,0.9997003078460693,0.0024999999441206455,0.0,0.0,0.0,0.0024999999441206455,0.0,0.0,0.0,0.0024999999441206455,0.0,0.0,0.0,0.019999999552965164,0.0,0.0,0.0,0.019999999552965164,0.0,0.0,0.0,0.019999999552965164,-0.1256955862045288,0.3076549172401428,9.718064308166504,0.03999999910593033,0.0,0.0,0.0,0.03999999910593033,0.0,0.0,0.0,0.03999999910593033
1778815396622810192,286439,1778815396602198965,imu_link,0.016130231320858,0.009465859271585941,0.014995543286204338,0.9997082948684692,0.0024999999441206455,0.0,0.0,0.0,0.0024999999441206455,0.0,0.0,0.0,0.0024999999441206455,0.0,0.0,0.0,0.019999999552965164,0.0,0.0,0.0,0.019999999552965164,0.0,0.0,0.0,0.019999999552965164,-0.12868833541870117,0.31184476613998413,9.728240013122559,0.03999999910593033,0.0,0.0,0.0,0.03999999910593033,0.0,0.0,0.0,0.03999999910593033
1778815396631711667,286440,1778815396609198965,imu_link,0.016224216669797897,0.00872872769832611,0.015008402988314629,0.9997133612632751,0.0024999999441206455,0.0,0.0,0.0,0.0024999999441206455,0.0,0.0,0.0,0.0024999999441206455,0.0,0.0,0.0,0.019999999552965164,0.0,0.0,0.0,0.019999999552965164,0.0,0.0,0.0,0.019999999552965164,-0.14006079733371735,0.3214215636253357,9.736021041870117,0.03999999910593033,0.0,0.0,0.0,0.03999999910593033,0.0,0.0,0.0,0.03999999910593033
1778815396654774407,286441,1778815396618198965,imu_link,0.016224216669797897,0.00872872769832611,0.015008402988314629,0.9997133612632751,0.0024999999441206455,0.0,0.0,0.0,0.0024999999441206455,0.0,0.0,0.0,0.0024999999441206455,0.0,0.0,0.0,0.019999999552965164,0.0,0.0,0.0,0.019999999552965164,0.0,0.0,0.0,0.019999999552965164,-0.14006079733371735,0.3214215636253357,9.736021041870117,0.03999999910593033,0.0,0.0,0.0,0.03999999910593033,0.0,0.0,0.0,0.03999999910593033
1778815396678522049,286442,1778815396663198965,imu_link,0.014997982420027256,0.003909691236913204,0.015076633542776108,0.9997619390487671,0.0024999999441206455,0.0,0.0,0.0,0.0024999999441206455,0.0,0.0,0.0,0.0024999999441206455,0.0,0.0,0.0,0.019999999552965164,0.0,0.0,0.0,0.019999999552965164,0.0,0.0,0.0,0.019999999552965164,-0.10833762586116791,0.304063618183136,9.767744064331055,0.03999999910593033,0.0,0.0,0.0,0.03999999910593033,0.0,0.0,0.0,0.03999999910593033
1778815396684746038,286443,1778815396666198965,imu_link,0.015102604404091835,0.0045946030877530575,0.015066700987517834,0.9997575283050537,0.0024999999441206455,0.0,0.0,0.0,0.0024999999441206455,0.0,0.0,0.0,0.0024999999441206455,0.0,0.0,0.0,0.019999999552965164,0.0,0.0,0.0,0.019999999552965164,0.0,0.0,0.0,0.019999999552965164,-0.11432313174009323,0.3010708689689636,9.758167266845703,0.03999999910593033,0.0,0.0,0.0,0.03999999910593033,0.0,0.0,0.0,0.03999999910593033
1778815396690758610,286444,1778815396671198965,imu_link,0.015102604404091835,0.0045946030877530575,0.015066700987517834,0.9997575283050537,0.0024999999441206455,0.0,0.0,0.0,0.0024999999441206455,0.0,0.0,0.0,0.0024999999441206455,0.0,0.0,0.0,0.019999999552965164,0.0,0.0,0.0,0.019999999552965164,0.0,0.0,0.0,0.019999999552965164,-0.11432313174009323,0.3010708689689636,9.758167266845703,0.03999999910593033,0.0,0.0,0.0,0.03999999910593033,0.0,0.0,0.0,0.03999999910593033
1778815396698463779,286445,1778815396676198965,imu_link,0.015100749209523201,0.005342067219316959,0.015055349096655846,0.9997540712356567,0.0024999999441206455,0.0,0.0,0.0,0.0024999999441206455,0.0,0.0,0.0,0.0024999999441206455,0.0,0.0,0.0,0.019999999552965164,0.0,0.0,0.0,0.019999999552965164,0.0,0.0,0.0,0.019999999552965164,-0.1478419452905655,0.2968810200691223,9.75517463684082,0.03999999910593033,0.0,0.0,0.0,0.03999999910593033,0.0,0.0,0.0,0.03999999910593033
1778815396704302108,286446,1778815396681198965,imu_link,0.015024205669760704,0.006081391591578722,0.015043729916214943,0.9997512102127075,0.0024999999441206455,0.0,0.0,0.0,0.0024999999441206455,0.0,0.0,0.0,0.0024999999441206455,0.0,0.0,0.0,0.019999999552965164,0.0,0.0,0.0,0.019999999552965164,0.0,0.0,0.0,0.019999999552965164,-0.13826514780521393,0.2932896912097931,9.768342971801758,0.03999999910593033,0.0,0.0,0.0,0.03999999910593033,0.0,0.0,0.0,0.03999999910593033
1778815396709522429,286447,1778815396686198965,imu_link,0.015064370818436146,0.00657995231449604,0.015036426484584808,0.9997475147247314,0.0024999999441206455,0.0,0.0,0.0,0.0024999999441206455,0.0,0.0,0.0,0.0024999999441206455,0.0,0.0,0.0,0.019999999552965164,0.0,0.0,0.0,0.019999999552965164,0.0,0.0,0.0,0.019999999552965164,-0.16639702022075653,0.2998737692832947,9.750985145568848,0.03999999910593033,0.0,0.0,0.0,0.03999999910593033,0.0,0.0,0.0,0.03999999910593033
1778815396733602723,286448,1778815396697198965,imu_link,0.015585300512611866,0.006050664000213146,0.015047757886350155,0.9997426271438599,0.0024999999441206455,0.0,0.0,0.0,0.0024999999441206455,0.0,0.0,0.0,0.0024999999441206455,0.0,0.0,0.0,0.019999999552965164,0.0,0.0,0.0,0.019999999552965164,0.0,0.0,0.0,0.019999999552965164,-0.11791443079710007,0.30226796865463257,9.767744064331055,0.03999999910593033,0.0,0.0,0.0,0.03999999910593033,0.0,0.0,0.0,0.03999999910593033
1778815396739335989,286449,1778815396700198965,imu_link,0.016221631318330765,0.006294372957199812,0.01504763588309288,0.9997310638427734,0.0024999999441206455,0.0,0.0,0.0,0.0024999999441206455,0.0,0.0,0.0,0.0024999999441206455,0.0,0.0,0.0,0.019999999552965164,0.0,0.0,0.0,0.019999999552965164,0.0,0.0,0.0,0.019999999552965164,-0.11851298063993454,0.3196259140968323,9.75278091430664,0.03999999910593033,0.0,0.0,0.0,0.03999999910593033,0.0,0.0,0.0,0.03999999910593033
1778815396745126877,286450,1778815396705198965,imu_link,0.016221631318330765,0.006294372957199812,0.01504763588309288,0.9997310638427734,0.0024999999441206455,0.0,0.0,0.0,0.0024999999441206455,0.0,0.0,0.0,0.0024999999441206455,0.0,0.0,0.0,0.019999999552965164,0.0,0.0,0.0,0.019999999552965164,0.0,0.0,0.0,0.019999999552965164,-0.11851298063993454,0.3196259140968323,9.75278091430664,0.03999999910593033,0.0,0.0,0.0,0.03999999910593033,0.0,0.0,0.0,0.03999999910593033
1778815396769177589,286451,1778815396753198965,imu_link,0.01164708286523819,0.008024007081985474,0.014991555362939835,0.9997832775115967,0.0024999999441206455,0.0,0.0,0.0,0.0024999999441206455,0.0,0.0,0.0,0.0024999999441206455,0.0,0.0,0.0,0.019999999552965164,0.0,0.0,0.0,0.019999999552965164,0.0,0.0,0.0,0.019999999552965164,-0.13168108463287354,0.28311434388160706,9.740809440612793,0.03999999910593033,0.0,0.0,0.0,0.03999999910593033,0.0,0.0,0.0,0.03999999910593033
1778815396774585368,286452,1778815396756198965,imu_link,0.012295801192522049,0.007781599182635546,0.01499949675053358,0.9997773170471191,0.0024999999441206455,0.0,0.0,0.0,0.0024999999441206455,0.0,0.0,0.0,0.0024999999441206455,0.0,0.0,0.0,0.019999999552965164,0.0,0.0,0.0,0.019999999552965164,0.0,0.0,0.0,0.019999999552965164,-0.12090718746185303,0.3100491166114807,9.721056938171387,0.03999999910593033,0.0,0.0,0.0,0.03999999910593033,0.0,0.0,0.0,0.03999999910593033
1778815396780570391,286453,1778815396761198965,imu_link,0.012791336514055729,0.007714828010648489,0.01500408910214901,0.9997715353965759,0.0024999999441206455,0.0,0.0,0.0,0.0024999999441206455,0.0,0.0,0.0,0.0024999999441206455,0.0,0.0,0.0,0.019999999552965164,0.0,0.0,0.0,0.019999999552965164,0.0,0.0,0.0,0.019999999552965164,-0.13706804811954498,0.31603461503982544,9.748590469360352,0.03999999910593033,0.0,0.0,0.0,0.03999999910593033,0.0,0.0,0.0,0.03999999910593033
1778815396786347562,286454,1778815396766198965,imu_link,0.012791336514055729,0.007714828010648489,0.01500408910214901,0.9997715353965759,0.0024999999441206455,0.0,0.0,0.0,0.0024999999441206455,0.0,0.0,0.0,0.0024999999441206455,0.0,0.0,0.0,0.019999999552965164,0.0,0.0,0.0,0.019999999552965164,0.0,0.0,0.0,0.019999999552965164,-0.13706804811954498,0.31603461503982544,9.748590469360352,0.03999999910593033,0.0,0.0,0.0,0.03999999910593033,0.0,0.0,0.0,0.03999999910593033
1778815396791911018,286455,1778815396771198965,imu_link,0.01353659201413393,0.007661291863769293,0.015010383911430836,0.9997621178627014,0.0024999999441206455,0.0,0.0,0.0,0.0024999999441206455,0.0,0.0,0.0,0.0024999999441206455,0.0,0.0,0.0,0.019999999552965164,0.0,0.0,0.0,0.019999999552965164,0.0,0.0,0.0,0.019999999552965164,-0.14185644686222076,0.3010708689689636,9.715670585632324,0.03999999910593033,0.0,0.0,0.0,0.03999999910593033,0.0,0.0,0.0,0.03999999910593033
1778815396800282826,286456,1778815396776198965,imu_link,0.014009722508490086,0.007499204482883215,0.015016121789813042,0.9997566342353821,0.0024999999441206455,0.0,0.0,0.0,0.0024999999441206455,0.0,0.0,0.0,0.0024999999441206455,0.0,0.0,0.0,0.019999999552965164,0.0,0.0,0.0,0.019999999552965164,0.0,0.0,0.0,0.019999999552965164,-0.13168108463287354,0.30526071786880493,9.758766174316406,0.03999999910593033,0.0,0.0,0.0,0.03999999910593033,0.0,0.0,0.0,0.03999999910593033
1778815396806256714,286457,1778815396781198965,imu_link,0.014230086468160152,0.006789534352719784,0.015027747489511967,0.9997585415840149,0.0024999999441206455,0.0,0.0,0.0,0.0024999999441206455,0.0,0.0,0.0,0.0024999999441206455,0.0,0.0,0.0,0.019999999552965164,0.0,0.0,0.0,0.019999999552965164,0.0,0.0,0.0,0.019999999552965164,-0.10953472554683685,0.2849099934101105,9.745597839355469,0.03999999910593033,0.0,0.0,0.0,0.03999999910593033,0.0,0.0,0.0,0.03999999910593033
1778815396831359305,286458,1778815396790198965,imu_link,0.014870517887175083,0.007456762250512838,0.01502238865941763,0.9997444748878479,0.0024999999441206455,0.0,0.0,0.0,0.0024999999441206455,0.0,0.0,0.0,0.0024999999441206455,0.0,0.0,0.0,0.019999999552965164,0.0,0.0,0.0,0.019999999552965164,0.0,0.0,0.0,0.019999999552965164,-0.14365209639072418,0.29448679089546204,9.731232643127441,0.03999999910593033,0.0,0.0,0.0,0.03999999910593033,0.0,0.0,0.0,0.03999999910593033
1778815396836943238,286459,1778815396795198965,imu_link,0.014870517887175083,0.007456762250512838,0.01502238865941763,0.9997444748878479,0.0024999999441206455,0.0,0.0,0.0,0.0024999999441206455,0.0,0.0,0.0,0.0024999999441206455,0.0,0.0,0.0,0.019999999552965164,0.0,0.0,0.0,0.019999999552965164,0.0,0.0,0.0,0.019999999552965164,-0.14365209639072418,0.29448679089546204,9.731232643127441,0.03999999910593033,0.0,0.0,0.0,0.03999999910593033,0.0,0.0,0.0,0.03999999910593033
1778815396858104959,286460,1778815396846198965,imu_link,0.010992104187607765,0.004009195603430271,0.015045786276459694,0.9998140335083008,0.0024999999441206455,0.0,0.0,0.0,0.0024999999441206455,0.0,0.0,0.0,0.0024999999441206455,0.0,0.0,0.0,0.019999999552965164,0.0,0.0,0.0,0.019999999552965164,0.0,0.0,0.0,0.019999999552965164,-0.13108253479003906,0.2801215946674347,9.710882186889648,0.03999999910593033,0.0,0.0,0.0,0.03999999910593033,0.0,0.0,0.0,0.03999999910593033
1778815396865962657,286461,1778815396849198965,imu_link,0.011555477045476437,0.004415259696543217,0.015043461695313454,0.9998061060905457,0.0024999999441206455,0.0,0.0,0.0,0.0024999999441206455,0.0,0.0,0.0,0.0024999999441206455,0.0,0.0,0.0,0.019999999552965164,0.0,0.0,0.0,0.019999999552965164,0.0,0.0,0.0,0.019999999552965164,-0.13287819921970367,0.29867666959762573,9.764751434326172,0.03999999910593033,0.0,0.0,0.0,0.03999999910593033,0.0,0.0,0.0,0.03999999910593033
1778815396872054864,286462,1778815396854198965,imu_link,0.011555477045476437,0.004415259696543217,0.015043461695313454,0.9998061060905457,0.0024999999441206455,0.0,0.0,0.0,0.0024999999441206455,0.0,0.0,0.0,0.0024999999441206455,0.0,0.0,0.0,0.019999999552965164,0.0,0.0,0.0,0.019999999552965164,0.0,0.0,0.0,0.019999999552965164,-0.13287819921970367,0.29867666959762573,9.764751434326172,0.03999999910593033,0.0,0.0,0.0,0.03999999910593033,0.0,0.0,0.0,0.03999999910593033
1778815396877191267,286463,1778815396859198965,imu_link,0.012183792889118195,0.0048194690607488155,0.01504142489284277,0.9997968077659607,0.0024999999441206455,0.0,0.0,0.0,0.0024999999441206455,0.0,0.0,0.0,0.0024999999441206455,0.0,0.0,0.0,0.019999999552965164,0.0,0.0,0.0,0.019999999552965164,0.0,0.0,0.0,0.019999999552965164,-0.1215057373046875,0.2890998423099518,9.7605619430542,0.03999999910593033,0.0,0.0,0.0,0.03999999910593033,0.0,0.0,0.0,0.03999999910593033
1778815396882706859,286464,1778815396864198965,imu_link,0.012625775299966335,0.005052988417446613,0.015040609985589981,0.9997901916503906,0.0024999999441206455,0.0,0.0,0.0,0.0024999999441206455,0.0,0.0,0.0,0.0024999999441206455,0.0,0.0,0.0,0.019999999552965164,0.0,0.0,0.0,0.019999999552965164,0.0,0.0,0.0,0.019999999552965164,-0.1304839849472046,0.31783026456832886,9.768342971801758,0.03999999910593033,0.0,0.0,0.0,0.03999999910593033,0.0,0.0,0.0,0.03999999910593033
1778815396888603631,286465,1778815396869198965,imu_link,0.013028830289840698,0.005349330138415098,0.015038803219795227,0.999783456325531,0.0024999999441206455,0.0,0.0,0.0,0.0024999999441206455,0.0,0.0,0.0,0.0024999999441206455,0.0,0.0,0.0,0.019999999552965164,0.0,0.0,0.0,0.019999999552965164,0.0,0.0,0.0,0.019999999552965164,-0.12629413604736328,0.29209259152412415,9.767744064331055,0.03999999910593033,0.0,0.0,0.0,0.03999999910593033,0.0,0.0,0.0,0.03999999910593033
1778815396898320602,286466,1778815396874198965,imu_link,0.013464207760989666,0.005595081485807896,0.015037824399769306,0.9997763633728027,0.0024999999441206455,0.0,0.0,0.0,0.0024999999441206455,0.0,0.0,0.0,0.0024999999441206455,0.0,0.0,0.0,0.019999999552965164,0.0,0.0,0.0,0.019999999552965164,0.0,0.0,0.0,0.019999999552965164,-0.1256955862045288,0.3016694188117981,9.716268539428711,0.03999999910593033,0.0,0.0,0.0,0.03999999910593033,0.0,0.0,0.0,0.03999999910593033
1778815396919615714,286467,1778815396883198965,imu_link,0.014629664830863476,0.0057700080797076225,0.015041799284517765,0.9997588992118835,0.0024999999441206455,0.0,0.0,0.0,0.0024999999441206455,0.0,0.0,0.0,0.0024999999441206455,0.0,0.0,0.0,0.019999999552965164,0.0,0.0,0.0,0.019999999552965164,0.0,0.0,0.0,0.019999999552965164,-0.11013327538967133,0.3280056416988373,9.750985145568848,0.03999999910593033,0.0,0.0,0.0,0.03999999910593033,0.0,0.0,0.0,0.03999999910593033
1778815396942797688,286468,1778815396926198965,imu_link,0.014672885648906231,0.00964075792580843,0.014984962530434132,0.9997292757034302,0.0024999999441206455,0.0,0.0,0.0,0.0024999999441206455,0.0,0.0,0.0,0.0024999999441206455,0.0,0.0,0.0,0.019999999552965164,0.0,0.0,0.0,0.019999999552965164,0.0,0.0,0.0,0.019999999552965164,-0.13108253479003906,0.28790274262428284,9.758766174316406,0.03999999910593033,0.0,0.0,0.0,0.03999999910593033,0.0,0.0,0.0,0.03999999910593033
1778815396948469016,286469,1778815396929198965,imu_link,0.014816119335591793,0.008962475694715977,0.014996358193457127,0.9997332692146301,0.0024999999441206455,0.0,0.0,0.0,0.0024999999441206455,0.0,0.0,0.0,0.0024999999441206455,0.0,0.0,0.0,0.019999999552965164,0.0,0.0,0.0,0.019999999552965164,0.0,0.0,0.0,0.019999999552965164,-0.11192892491817474,0.304063618183136,9.779715538024902,0.03999999910593033,0.0,0.0,0.0,0.03999999910593033,0.0,0.0,0.0,0.03999999910593033
1778815396954094650,286470,1778815396934198965,imu_link,0.014897758141160011,0.00846889428794384,0.015004449523985386,0.9997362494468689,0.0024999999441206455,0.0,0.0,0.0,0.0024999999441206455,0.0,0.0,0.0,0.0024999999441206455,0.0,0.0,0.0,0.019999999552965164,0.0,0.0,0.0,0.019999999552965164,0.0,0.0,0.0,0.019999999552965164,-0.1149216815829277,0.2998737692832947,9.747393608093262,0.03999999910593033,0.0,0.0,0.0,0.03999999910593033,0.0,0.0,0.0,0.03999999910593033
1778815396959746109,286471,1778815396939198965,imu_link,0.015037124045193195,0.007988594472408295,0.015012814663350582,0.9997380375862122,0.0024999999441206455,0.0,0.0,0.0,0.0024999999441206455,0.0,0.0,0.0,0.0024999999441206455,0.0,0.0,0.0,0.019999999552965164,0.0,0.0,0.0,0.019999999552965164,0.0,0.0,0.0,0.019999999552965164,-0.10055647045373917,0.3082534670829773,9.711480140686035,0.03999999910593033,0.0,0.0,0.0,0.03999999910593033,0.0,0.0,0.0,0.03999999910593033
1778815396967337370,286472,1778815396944198965,imu_link,0.015418506227433681,0.00766343018040061,0.015020700171589851,0.9997345805168152,0.0024999999441206455,0.0,0.0,0.0,0.0024999999441206455,0.0,0.0,0.0,0.0024999999441206455,0.0,0.0,0.0,0.019999999552965164,0.0,0.0,0.0,0.019999999552965164,0.0,0.0,0.0,0.019999999552965164,-0.12389993667602539,0.3274070918560028,9.758766174316406,0.03999999910593033,0.0,0.0,0.0,0.03999999910593033,0.0,0.0,0.0,0.03999999910593033
1778815396972960742,286473,1778815396949198965,imu_link,0.015418506227433681,0.00766343018040061,0.015020700171589851,0.9997345805168152,0.0024999999441206455,0.0,0.0,0.0,0.0024999999441206455,0.0,0.0,0.0,0.0024999999441206455,0.0,0.0,0.0,0.019999999552965164,0.0,0.0,0.0,0.019999999552965164,0.0,0.0,0.0,0.019999999552965164,-0.12389993667602539,0.3274070918560028,9.758766174316406,0.03999999910593033,0.0,0.0,0.0,0.03999999910593033,0.0,0.0,0.0,0.03999999910593033
1778815396978712762,286474,1778815396954198965,imu_link,0.015188135206699371,0.006953275762498379,0.015030017122626305,0.9997432231903076,0.0024999999441206455,0.0,0.0,0.0,0.0024999999441206455,0.0,0.0,0.0,0.0024999999441206455,0.0,0.0,0.0,0.019999999552965164,0.0,0.0,0.0,0.019999999552965164,0.0,0.0,0.0,0.019999999552965164,-0.12210428714752197,0.2950853407382965,9.745597839355469,0.03999999910593033,0.0,0.0,0.0,0.03999999910593033,0.0,0.0,0.0,0.03999999910593033
1778815397003713556,286475,1778815396963198965,imu_link,0.014911487698554993,0.006300521548837423,0.015037810429930687,0.9997516870498657,0.0024999999441206455,0.0,0.0,0.0,0.0024999999441206455,0.0,0.0,0.0,0.0024999999441206455,0.0,0.0,0.0,0.019999999552965164,0.0,0.0,0.0,0.019999999552965164,0.0,0.0,0.0,0.019999999552965164,-0.1215057373046875,0.2914940416812897,9.743204116821289,0.03999999910593033,0.0,0.0,0.0,0.03999999910593033,0.0,0.0,0.0,0.03999999910593033
1778815397024842761,286476,1778815397013198965,imu_link,0.01940058544278145,0.0054552434012293816,0.015077615156769753,0.9996789693832397,0.0024999999441206455,0.0,0.0,0.0,0.0024999999441206455,0.0,0.0,0.0,0.0024999999441206455,0.0,0.0,0.0,0.019999999552965164,0.0,0.0,0.0,0.019999999552965164,0.0,0.0,0.0,0.019999999552965164,-0.11611878126859665,0.3064578175544739,9.771934509277344,0.03999999910593033,0.0,0.0,0.0,0.03999999910593033,0.0,0.0,0.0,0.03999999910593033
1778815397032884038,286477,1778815397016198965,imu_link,0.01873074658215046,0.005612075328826904,0.015071095898747444,0.9996908903121948,0.0024999999441206455,0.0,0.0,0.0,0.0024999999441206455,0.0,0.0,0.0,0.0024999999441206455,0.0,0.0,0.0,0.019999999552965164,0.0,0.0,0.0,0.019999999552965164,0.0,0.0,0.0,0.019999999552965164,-0.12270283699035645,0.2926911413669586,9.757569313049316,0.03999999910593033,0.0,0.0,0.0,0.03999999910593033,0.0,0.0,0.0,0.03999999910593033
1778815397038513785,286478,1778815397021198965,imu_link,0.01873074658215046,0.005612075328826904,0.015071095898747444,0.9996908903121948,0.0024999999441206455,0.0,0.0,0.0,0.0024999999441206455,0.0,0.0,0.0,0.0024999999441206455,0.0,0.0,0.0,0.019999999552965164,0.0,0.0,0.0,0.019999999552965164,0.0,0.0,0.0,0.019999999552965164,-0.12270283699035645,0.2926911413669586,9.757569313049316,0.03999999910593033,0.0,0.0,0.0,0.03999999910593033,0.0,0.0,0.0,0.03999999910593033
1778815397044351076,286479,1778815397026198965,imu_link,0.017999110743403435,0.005760999862104654,0.015064388513565063,0.9997035264968872,0.0024999999441206455,0.0,0.0,0.0,0.0024999999441206455,0.0,0.0,0.0,0.0024999999441206455,0.0,0.0,0.0,0.019999999552965164,0.0,0.0,0.0,0.019999999552965164,0.0,0.0,0.0,0.019999999552965164,-0.12090718746185303,0.2902969419956207,9.75637149810791,0.03999999910593033,0.0,0.0,0.0,0.03999999910593033,0.0,0.0,0.0,0.03999999910593033
1778815397050007141,286480,1778815397031198965,imu_link,0.017343444749712944,0.006109696812927723,0.015054479241371155,0.9997133016586304,0.0024999999441206455,0.0,0.0,0.0,0.0024999999441206455,0.0,0.0,0.0,0.0024999999441206455,0.0,0.0,0.0,0.019999999552965164,0.0,0.0,0.0,0.019999999552965164,0.0,0.0,0.0,0.019999999552965164,-0.1304839849472046,0.3100491166114807,9.744400978088379,0.03999999910593033,0.0,0.0,0.0,0.03999999910593033,0.0,0.0,0.0,0.03999999910593033
1778815397055706424,286481,1778815397038198965,imu_link,0.0166082251816988,0.006209756247699261,0.015048429369926453,0.9997252225875854,0.0024999999441206455,0.0,0.0,0.0,0.0024999999441206455,0.0,0.0,0.0,0.0024999999441206455,0.0,0.0,0.0,0.019999999552965164,0.0,0.0,0.0,0.019999999552965164,0.0,0.0,0.0,0.019999999552965164,-0.11851298063993454,0.3106476664543152,9.747992515563965,0.03999999910593033,0.0,0.0,0.0,0.03999999910593033,0.0,0.0,0.0,0.03999999910593033
1778815397080239763,286482,1778815397047198965,imu_link,0.0166082251816988,0.006209756247699261,0.015048429369926453,0.9997252225875854,0.0024999999441206455,0.0,0.0,0.0,0.0024999999441206455,0.0,0.0,0.0,0.0024999999441206455,0.0,0.0,0.0,0.019999999552965164,0.0,0.0,0.0,0.019999999552965164,0.0,0.0,0.0,0.019999999552965164,-0.11851298063993454,0.3106476664543152,9.747992515563965,0.03999999910593033,0.0,0.0,0.0,0.03999999910593033,0.0,0.0,0.0,0.03999999910593033
1778815397086097101,286483,1778815397050198965,imu_link,0.01543763279914856,0.006334999110549688,0.015039351768791676,0.9997434020042419,0.0024999999441206455,0.0,0.0,0.0,0.0024999999441206455,0.0,0.0,0.0,0.0024999999441206455,0.0,0.0,0.0,0.019999999552965164,0.0,0.0,0.0,0.019999999552965164,0.0,0.0,0.0,0.019999999552965164,-0.12030863016843796,0.29867666959762573,9.79647445678711,0.03999999910593033,0.0,0.0,0.0,0.03999999910593033,0.0,0.0,0.0,0.03999999910593033
1778815397091524133,286484,1778815397055198965,imu_link,0.01543763279914856,0.006334999110549688,0.015039351768791676,0.9997434020042419,0.0024999999441206455,0.0,0.0,0.0,0.0024999999441206455,0.0,0.0,0.0,0.0024999999441206455,0.0,0.0,0.0,0.019999999552965164,0.0,0.0,0.0,0.019999999552965164,0.0,0.0,0.0,0.019999999552965164,-0.12030863016843796,0.29867666959762573,9.79647445678711,0.03999999910593033,0.0,0.0,0.0,0.03999999910593033,0.0,0.0,0.0,0.03999999910593033
1778815397099554927,286485,1778815397060198965,imu_link,0.014699184335768223,0.006238473579287529,0.015036339871585369,0.9997551441192627,0.0024999999441206455,0.0,0.0,0.0,0.0024999999441206455,0.0,0.0,0.0,0.0024999999441206455,0.0,0.0,0.0,0.019999999552965164,0.0,0.0,0.0,0.019999999552965164,0.0,0.0,0.0,0.019999999552965164,-0.11611878126859665,0.2777273952960968,9.749787330627441,0.03999999910593033,0.0,0.0,0.0,0.03999999910593033,0.0,0.0,0.0,0.03999999910593033
1778815397120805897,286486,1778815397100198965,imu_link,0.016272027045488358,0.009756585583090782,0.014993649907410145,0.9997033476829529,0.0024999999441206455,0.0,0.0,0.0,0.0024999999441206455,0.0,0.0,0.0,0.0024999999441206455,0.0,0.0,0.0,0.019999999552965164,0.0,0.0,0.0,0.019999999552965164,0.0,0.0,0.0,0.019999999552965164,-0.14245499670505524,0.30047231912612915,9.7605619430542,0.03999999910593033,0.0,0.0,0.0,0.03999999910593033,0.0,0.0,0.0,0.03999999910593033
1778815397127389349,286487,1778815397103198965,imu_link,0.016149034723639488,0.009080201387405396,0.015003581531345844,0.9997115135192871,0.0024999999441206455,0.0,0.0,0.0,0.0024999999441206455,0.0,0.0,0.0,0.0024999999441206455,0.0,0.0,0.0,0.019999999552965164,0.0,0.0,0.0,0.019999999552965164,0.0,0.0,0.0,0.019999999552965164,-0.1430535465478897,0.31184476613998413,9.748590469360352,0.03999999910593033,0.0,0.0,0.0,0.03999999910593033,0.0,0.0,0.0,0.03999999910593033
1778815397134267146,286488,1778815397108198965,imu_link,0.016072778031229973,0.00858575664460659,0.015010958537459373,0.9997169971466064,0.0024999999441206455,0.0,0.0,0.0,0.0024999999441206455,0.0,0.0,0.0,0.0024999999441206455,0.0,0.0,0.0,0.019999999552965164,0.0,0.0,0.0,0.019999999552965164,0.0,0.0,0.0,0.019999999552965164,-0.11911153048276901,0.3082534670829773,9.737217903137207,0.03999999910593033,0.0,0.0,0.0,0.03999999910593033,0.0,0.0,0.0,0.03999999910593033
1778815397140147124,286489,1778815397113198965,imu_link,0.016072778031229973,0.00858575664460659,0.015010958537459373,0.9997169971466064,0.0024999999441206455,0.0,0.0,0.0,0.0024999999441206455,0.0,0.0,0.0,0.0024999999441206455,0.0,0.0,0.0,0.019999999552965164,0.0,0.0,0.0,0.019999999552965164,0.0,0.0,0.0,0.019999999552965164,-0.11911153048276901,0.3082534670829773,9.737217903137207,0.03999999910593033,0.0,0.0,0.0,0.03999999910593033,0.0,0.0,0.0,0.03999999910593033
1778815397146572404,286490,1778815397118198965,imu_link,0.016066493466496468,0.00783830787986517,0.015023010782897472,0.999722957611084,0.0024999999441206455,0.0,0.0,0.0,0.0024999999441206455,0.0,0.0,0.0,0.0024999999441206455,0.0,0.0,0.0,0.019999999552965164,0.0,0.0,0.0,0.019999999552965164,0.0,0.0,0.0,0.019999999552965164,-0.11013327538967133,0.3148375153541565,9.750985145568848,0.03999999910593033,0.0,0.0,0.0,0.03999999910593033,0.0,0.0,0.0,0.03999999910593033
1778815397151957958,286491,1778815397123198965,imu_link,0.015367526561021805,0.007588288281112909,0.01502174325287342,0.9997358918190002,0.0024999999441206455,0.0,0.0,0.0,0.0024999999441206455,0.0,0.0,0.0,0.0024999999441206455,0.0,0.0,0.0,0.019999999552965164,0.0,0.0,0.0,0.019999999552965164,0.0,0.0,0.0,0.019999999552965164,-0.1346738487482071,0.2759317457675934,9.759963035583496,0.03999999910593033,0.0,0.0,0.0,0.03999999910593033,0.0,0.0,0.0,0.03999999910593033
1778815397157606709,286492,1778815397128198965,imu_link,0.015406191349029541,0.00708959624171257,0.01502974797040224,0.999738872051239,0.0024999999441206455,0.0,0.0,0.0,0.0024999999441206455,0.0,0.0,0.0,0.0024999999441206455,0.0,0.0,0.0,0.019999999552965164,0.0,0.0,0.0,0.019999999552965164,0.0,0.0,0.0,0.019999999552965164,-0.12928688526153564,0.30286651849746704,9.749787330627441,0.03999999910593033,0.0,0.0,0.0,0.03999999910593033,0.0,0.0,0.0,0.03999999910593033
1778815397199539213,286493,1778815397180198965,imu_link,0.011202994734048843,0.009336861781775951,0.014965889044106007,0.9997773170471191,0.0024999999441206455,0.0,0.0,0.0,0.0024999999441206455,0.0,0.0,0.0,0.0024999999441206455,0.0,0.0,0.0,0.019999999552965164,0.0,0.0,0.0,0.019999999552965164,0.0,0.0,0.0,0.019999999552965164,-0.1388636976480484,0.2932896912097931,9.747992515563965,0.03999999910593033,0.0,0.0,0.0,0.03999999910593033,0.0,0.0,0.0,0.03999999910593033
1778815397205093316,286494,1778815397182198965,imu_link,0.01177170779556036,0.008943319320678711,0.014975564554333687,0.9997742772102356,0.0024999999441206455,0.0,0.0,0.0,0.0024999999441206455,0.0,0.0,0.0,0.0024999999441206455,0.0,0.0,0.0,0.019999999552965164,0.0,0.0,0.0,0.019999999552965164,0.0,0.0,0.0,0.019999999552965164,-0.11372458189725876,0.314238965511322,9.788094520568848,0.03999999910593033,0.0,0.0,0.0,0.03999999910593033,0.0,0.0,0.0,0.03999999910593033
1778815397211168510,286495,1778815397187198965,imu_link,0.012185030616819859,0.008661390282213688,0.014982541091740131,0.9997716546058655,0.0024999999441206455,0.0,0.0,0.0,0.0024999999441206455,0.0,0.0,0.0,0.0024999999441206455,0.0,0.0,0.0,0.019999999552965164,0.0,0.0,0.0,0.019999999552965164,0.0,0.0,0.0,0.019999999552965164,-0.12389993667602539,0.29867666959762573,9.741408348083496,0.03999999910593033,0.0,0.0,0.0,0.03999999910593033,0.0,0.0,0.0,0.03999999910593033
1778815397216781664,286496,1778815397192198965,imu_link,0.01257976796478033,0.008352185599505901,0.014989694580435753,0.9997693300247192,0.0024999999441206455,0.0,0.0,0.0,0.0024999999441206455,0.0,0.0,0.0,0.0024999999441206455,0.0,0.0,0.0,0.019999999552965164,0.0,0.0,0.0,0.019999999552965164,0.0,0.0,0.0,0.019999999552965164,-0.11971008032560349,0.2950853407382965,9.713874816894531,0.03999999910593033,0.0,0.0,0.0,0.03999999910593033,0.0,0.0,0.0,0.03999999910593033
1778815397222266534,286497,1778815397197198965,imu_link,0.013026019558310509,0.008125381544232368,0.014996214769780636,0.9997652769088745,0.0024999999441206455,0.0,0.0,0.0,0.0024999999441206455,0.0,0.0,0.0,0.0024999999441206455,0.0,0.0,0.0,0.019999999552965164,0.0,0.0,0.0,0.019999999552965164,0.0,0.0,0.0,0.019999999552965164,-0.1364694982767105,0.2902969419956207,9.73781681060791,0.03999999910593033,0.0,0.0,0.0,0.03999999910593033,0.0,0.0,0.0,0.03999999910593033
1778815397230311353,286498,1778815397202198965,imu_link,0.013496354222297668,0.00795353576540947,0.015002202242612839,0.9997603893280029,0.0024999999441206455,0.0,0.0,0.0,0.0024999999441206455,0.0,0.0,0.0,0.0024999999441206455,0.0,0.0,0.0,0.019999999552965164,0.0,0.0,0.0,0.019999999552965164,0.0,0.0,0.0,0.019999999552965164,-0.13826514780521393,0.2992752194404602,9.748590469360352,0.03999999910593033,0.0,0.0,0.0,0.03999999910593033,0.0,0.0,0.0,0.03999999910593033
1778815397236786022,286499,1778815397207198965,imu_link,0.01386988814920187,0.007619941607117653,0.015009638853371143,0.9997578263282776,0.0024999999441206455,0.0,0.0,0.0,0.0024999999441206455,0.0,0.0,0.0,0.0024999999441206455,0.0,0.0,0.0,0.019999999552965164,0.0,0.0,0.0,0.019999999552965164,0.0,0.0,0.0,0.019999999552965164,-0.12030863016843796,0.2992752194404602,9.753378868103027,0.03999999910593033,0.0,0.0,0.0,0.03999999910593033,0.0,0.0,0.0,0.03999999910593033
1778815397258266728,286500,1778815397216198965,imu_link,0.014442767947912216,0.006890560034662485,0.015024076215922832,0.9997546672821045,0.0024999999441206455,0.0,0.0,0.0,0.0024999999441206455,0.0,0.0,0.0,0.0024999999441206455,0.0,0.0,0.0,0.019999999552965164,0.0,0.0,0.0,0.019999999552965164,0.0,0.0,0.0,0.019999999552965164,-0.11851298063993454,0.2926911413669586,9.752182006835938,0.03999999910593033,0.0,0.0,0.0,0.03999999910593033,0.0,0.0,0.0,0.03999999910593033
1778815397281538450,286501,1778815397267198965,imu_link,0.01802256517112255,0.003959354478865862,0.015090446919202805,0.9997115731239319,0.0024999999441206455,0.0,0.0,0.0,0.0024999999441206455,0.0,0.0,0.0,0.0024999999441206455,0.0,0.0,0.0,0.019999999552965164,0.0,0.0,0.0,0.019999999552965164,0.0,0.0,0.0,0.019999999552965164,-0.10534487664699554,0.314238965511322,9.774328231811523,0.03999999910593033,0.0,0.0,0.0,0.03999999910593033,0.0,0.0,0.0,0.03999999910593033
1778815397290225156,286502,1778815397270198965,imu_link,0.017389211803674698,0.004234634339809418,0.01508312951773405,0.9997217655181885,0.0024999999441206455,0.0,0.0,0.0,0.0024999999441206455,0.0,0.0,0.0,0.0024999999441206455,0.0,0.0,0.0,0.019999999552965164,0.0,0.0,0.0,0.019999999552965164,0.0,0.0,0.0,0.019999999552965164,-0.10893617570400238,0.26994624733924866,9.731232643127441,0.03999999910593033,0.0,0.0,0.0,0.03999999910593033,0.0,0.0,0.0,0.03999999910593033
1778815397297845602,286503,1778815397275198965,imu_link,0.01692889630794525,0.004430676344782114,0.01507787685841322,0.9997288584709167,0.0024999999441206455,0.0,0.0,0.0,0.0024999999441206455,0.0,0.0,0.0,0.0024999999441206455,0.0,0.0,0.0,0.019999999552965164,0.0,0.0,0.0,0.019999999552965164,0.0,0.0,0.0,0.019999999552965164,-0.11252747476100922,0.26336216926574707,9.786299705505371,0.03999999910593033,0.0,0.0,0.0,0.03999999910593033,0.0,0.0,0.0,0.03999999910593033
1778815397303258548,286504,1778815397280198965,imu_link,0.016508080065250397,0.004700310528278351,0.015071534551680088,0.9997346997261047,0.0024999999441206455,0.0,0.0,0.0,0.0024999999441206455,0.0,0.0,0.0,0.0024999999441206455,0.0,0.0,0.0,0.019999999552965164,0.0,0.0,0.0,0.019999999552965164,0.0,0.0,0.0,0.019999999552965164,-0.11791443079710007,0.2777273952960968,9.77791976928711,0.03999999910593033,0.0,0.0,0.0,0.03999999910593033,0.0,0.0,0.0,0.03999999910593033
1778815397308387137,286505,1778815397285198965,imu_link,0.01623072475194931,0.0051163313910365105,0.015063400380313396,0.9997373223304749,0.0024999999441206455,0.0,0.0,0.0,0.0024999999441206455,0.0,0.0,0.0,0.0024999999441206455,0.0,0.0,0.0,0.019999999552965164,0.0,0.0,0.0,0.019999999552965164,0.0,0.0,0.0,0.019999999552965164,-0.1173158809542656,0.30226796865463257,9.712677955627441,0.03999999910593033,0.0,0.0,0.0,0.03999999910593033,0.0,0.0,0.0,0.03999999910593033
1778815397314236268,286506,1778815397290198965,imu_link,0.01623072475194931,0.0051163313910365105,0.015063400380313396,0.9997373223304749,0.0024999999441206455,0.0,0.0,0.0,0.0024999999441206455,0.0,0.0,0.0,0.0024999999441206455,0.0,0.0,0.0,0.019999999552965164,0.0,0.0,0.0,0.019999999552965164,0.0,0.0,0.0,0.019999999552965164,-0.1173158809542656,0.30226796865463257,9.712677955627441,0.03999999910593033,0.0,0.0,0.0,0.03999999910593033,0.0,0.0,0.0,0.03999999910593033
1778815397320165393,286507,1778815397295198965,imu_link,0.015949763357639313,0.005809007212519646,0.015050733461976051,0.9997383952140808,0.0024999999441206455,0.0,0.0,0.0,0.0024999999441206455,0.0,0.0,0.0,0.0024999999441206455,0.0,0.0,0.0,0.019999999552965164,0.0,0.0,0.0,0.019999999552965164,0.0,0.0,0.0,0.019999999552965164,-0.10594342648983002,0.31364041566848755,9.743802070617676,0.03999999910593033,0.0,0.0,0.0,0.03999999910593033,0.0,0.0,0.0,0.03999999910593033
1778815397344966377,286508,1778815397304198965,imu_link,0.01485796645283699,0.006227036006748676,0.01503793615847826,0.9997527003288269,0.0024999999441206455,0.0,0.0,0.0,0.0024999999441206455,0.0,0.0,0.0,0.0024999999441206455,0.0,0.0,0.0,0.019999999552965164,0.0,0.0,0.0,0.019999999552965164,0.0,0.0,0.0,0.019999999552965164,-0.1173158809542656,0.2902969419956207,9.73661994934082,0.03999999910593033,0.0,0.0,0.0,0.03999999910593033,0.0,0.0,0.0,0.03999999910593033
1778815397368825599,286509,1778815397354198965,imu_link,0.012691120617091656,0.010275641456246376,0.014964235946536064,0.9997503757476807,0.0024999999441206455,0.0,0.0,0.0,0.0024999999441206455,0.0,0.0,0.0,0.0024999999441206455,0.0,0.0,0.0,0.019999999552965164,0.0,0.0,0.0,0.019999999552965164,0.0,0.0,0.0,0.019999999552965164,-0.12988543510437012,0.28371289372444153,9.713275909423828,0.03999999910593033,0.0,0.0,0.0,0.03999999910593033,0.0,0.0,0.0,0.03999999910593033
1778815397374662669,286510,1778815397357198965,imu_link,0.013154001906514168,0.0097639299929142,0.014975474216043949,0.9997493624687195,0.0024999999441206455,0.0,0.0,0.0,0.0024999999441206455,0.0,0.0,0.0,0.0024999999441206455,0.0,0.0,0.0,0.019999999552965164,0.0,0.0,0.0,0.019999999552965164,0.0,0.0,0.0,0.019999999552965164,-0.132279634475708,0.30705636739730835,9.748590469360352,0.03999999910593033,0.0,0.0,0.0,0.03999999910593033,0.0,0.0,0.0,0.03999999910593033
1778815397380449902,286511,1778815397362198965,imu_link,0.013514934107661247,0.009416723623871803,0.014983542263507843,0.9997476935386658,0.0024999999441206455,0.0,0.0,0.0,0.0024999999441206455,0.0,0.0,0.0,0.0024999999441206455,0.0,0.0,0.0,0.019999999552965164,0.0,0.0,0.0,0.019999999552965164,0.0,0.0,0.0,0.019999999552965164,-0.13527239859104156,0.31124621629714966,9.750386238098145,0.03999999910593033,0.0,0.0,0.0,0.03999999910593033,0.0,0.0,0.0,0.03999999910593033
1778815397385942677,286512,1778815397367198965,imu_link,0.013514934107661247,0.009416723623871803,0.014983542263507843,0.9997476935386658,0.0024999999441206455,0.0,0.0,0.0,0.0024999999441206455,0.0,0.0,0.0,0.0024999999441206455,0.0,0.0,0.0,0.019999999552965164,0.0,0.0,0.0,0.019999999552965164,0.0,0.0,0.0,0.019999999552965164,-0.13527239859104156,0.31124621629714966,9.750386238098145,0.03999999910593033,0.0,0.0,0.0,0.03999999910593033,0.0,0.0,0.0,0.03999999910593033
