%time,field.header.seq,field.header.stamp,field.header.frame_id,field.orientation.x,field.orientation.y,field.orientation.z,field.orientation.w,field.orientation_covariance0,field.orientation_covariance1,field.orientation_covariance2,field.orientation_covariance3,field.orientation_covariance4,field.orientation_covariance5,field.orientation_covariance6,field.orientation_covariance7,field.orientation_covariance8,field.angular_velocity.x,field.angular_velocity.y,field.angular_velocity.z,field.angular_velocity_covariance0,field.angular_velocity_covariance1,field.angular_velocity_covariance2,field.angular_velocity_covariance3,field.angular_velocity_covariance4,field.angular_velocity_covariance5,field.angular_velocity_covariance6,field.angular_velocity_covariance7,field.angular_velocity_covariance8,field.linear_acceleration.x,field.linear_acceleration.y,field.linear_acceleration.z,field.linear_acceleration_covariance0,field.linear_acceleration_covariance1,field.linear_acceleration_covariance2,field.linear_acceleration_covariance3,field.linear_acceleration_covariance4,field.linear_acceleration_covariance5,field.linear_acceleration_covariance6,field.linear_acceleration_covariance7,field.linear_acceleration_covariance8
1778818960941797923,150665,1778818960933864999,imu_link,0.007423621602356434,0.013002409599721432,0.13960129022598267,-0.9900902509689331,0.0024999999441206455,0.0,0.0,0.0,0.0024999999441206455,0.0,0.0,0.0,0.0024999999441206455,0.0,0.0,0.0,0.019999999552965164,0.0,0.0,0.0,0.019999999552965164,0.0,0.0,0.0,0.019999999552965164,0.28371289372444153,-0.23163901269435883,9.737217903137207,0.03999999910593033,0.0,0.0,0.0,0.03999999910593033,0.0,0.0,0.0,0.03999999910593033
1778818960948047999,150666,1778818960935864999,imu_link,0.00810931995511055,0.012962575070559978,0.1395915001630783,-0.9900867938995361,0.0024999999441206455,0.0,0.0,0.0,0.0024999999441206455,0.0,0.0,0.0,0.0024999999441206455,0.0,0.0,0.0,0.019999999552965164,0.0,0.0,0.0,0.019999999552965164,0.0,0.0,0.0,0.019999999552965164,0.28072014451026917,-0.21667525172233582,9.764751434326172,0.03999999910593033,0.0,0.0,0.0,0.03999999910593033,0.0,0.0,0.0,0.03999999910593033
1778818960954769087,150667,1778818960940864999,imu_link,0.00810931995511055,0.012962575070559978,0.1395915001630783,-0.9900867938995361,0.0024999999441206455,0.0,0.0,0.0,0.0024999999441206455,0.0,0.0,0.0,0.0024999999441206455,0.0,0.0,0.0,0.019999999552965164,0.0,0.0,0.0,0.019999999552965164,0.0,0.0,0.0,0.019999999552965164,0.28072014451026917,-0.21667525172233582,9.764751434326172,0.03999999910593033,0.0,0.0,0.0,0.03999999910593033,0.0,0.0,0.0,0.03999999910593033
1778818960959780927,150668,1778818960945864999,imu_link,0.008842140436172485,0.013096397742629051,0.1395820528268814,-0.9900800585746765,0.0024999999441206455,0.0,0.0,0.0,0.0024999999441206455,0.0,0.0,0.0,0.0024999999441206455,0.0,0.0,0.0,0.019999999552965164,0.0,0.0,0.0,0.019999999552965164,0.0,0.0,0.0,0.019999999552965164,0.295683890581131,-0.18974047899246216,9.77013874053955,0.03999999910593033,0.0,0.0,0.0,0.03999999910593033,0.0,0.0,0.0,0.03999999910593033
1778818960965343254,150669,1778818960950864999,imu_link,0.00958491675555706,0.013095613569021225,0.13957145810127258,-0.9900746941566467,0.0024999999441206455,0.0,0.0,0.0,0.0024999999441206455,0.0,0.0,0.0,0.0024999999441206455,0.0,0.0,0.0,0.019999999552965164,0.0,0.0,0.0,0.019999999552965164,0.0,0.0,0.0,0.019999999552965164,0.28730419278144836,-0.20889408886432648,9.746794700622559,0.03999999910593033,0.0,0.0,0.0,0.03999999910593033,0.0,0.0,0.0,0.03999999910593033
1778818960970939770,150670,1778818960955864999,imu_link,0.010084116831421852,0.013127523474395275,0.13956454396247864,-0.9900702834129333,0.0024999999441206455,0.0,0.0,0.0,0.0024999999441206455,0.0,0.0,0.0,0.0024999999441206455,0.0,0.0,0.0,0.019999999552965164,0.0,0.0,0.0,0.019999999552965164,0.0,0.0,0.0,0.019999999552965164,0.28969839215278625,-0.20051439106464386,9.75278091430664,0.03999999910593033,0.0,0.0,0.0,0.03999999910593033,0.0,0.0,0.0,0.03999999910593033
1778818960978261611,150671,1778818960960864999,imu_link,0.010084116831421852,0.013127523474395275,0.13956454396247864,-0.9900702834129333,0.0024999999441206455,0.0,0.0,0.0,0.0024999999441206455,0.0,0.0,0.0,0.0024999999441206455,0.0,0.0,0.0,0.019999999552965164,0.0,0.0,0.0,0.019999999552965164,0.0,0.0,0.0,0.019999999552965164,0.28969839215278625,-0.20051439106464386,9.75278091430664,0.03999999910593033,0.0,0.0,0.0,0.03999999910593033,0.0,0.0,0.0,0.03999999910593033
1778818961002065543,150672,1778818960969864999,imu_link,0.011492367833852768,0.01310749165713787,0.13954414427280426,-0.9900581240653992,0.0024999999441206455,0.0,0.0,0.0,0.0024999999441206455,0.0,0.0,0.0,0.0024999999441206455,0.0,0.0,0.0,0.019999999552965164,0.0,0.0,0.0,0.019999999552965164,0.0,0.0,0.0,0.019999999552965164,0.2902969419956207,-0.20769698917865753,9.70429801940918,0.03999999910593033,0.0,0.0,0.0,0.03999999910593033,0.0,0.0,0.0,0.03999999910593033
1778818961009910528,150673,1778818960974864999,imu_link,0.011492367833852768,0.01310749165713787,0.13954414427280426,-0.9900581240653992,0.0024999999441206455,0.0,0.0,0.0,0.0024999999441206455,0.0,0.0,0.0,0.0024999999441206455,0.0,0.0,0.0,0.019999999552965164,0.0,0.0,0.0,0.019999999552965164,0.0,0.0,0.0,0.019999999552965164,0.2902969419956207,-0.20769698917865753,9.70429801940918,0.03999999910593033,0.0,0.0,0.0,0.03999999910593033,0.0,0.0,0.0,0.03999999910593033
1778818961037099895,150674,1778818961027864999,imu_link,0.016608959063887596,0.014455953612923622,0.13948042690753937,-0.9899756908416748,0.0024999999441206455,0.0,0.0,0.0,0.0024999999441206455,0.0,0.0,0.0,0.0024999999441206455,0.0,0.0,0.0,0.019999999552965164,0.0,0.0,0.0,0.019999999552965164,0.0,0.0,0.0,0.019999999552965164,0.2998737692832947,-0.2238578498363495,9.730633735656738,0.03999999910593033,0.0,0.0,0.0,0.03999999910593033,0.0,0.0,0.0,0.03999999910593033
1778818961042896967,150675,1778818961029864999,imu_link,0.016038235276937485,0.01407676562666893,0.13948440551757812,-0.9899898767471313,0.0024999999441206455,0.0,0.0,0.0,0.0024999999441206455,0.0,0.0,0.0,0.0024999999441206455,0.0,0.0,0.0,0.019999999552965164,0.0,0.0,0.0,0.019999999552965164,0.0,0.0,0.0,0.019999999552965164,0.27234044671058655,-0.22266075015068054,9.769539833068848,0.03999999910593033,0.0,0.0,0.0,0.03999999910593033,0.0,0.0,0.0,0.03999999910593033
1778818961051434652,150676,1778818961034864999,imu_link,0.016038235276937485,0.01407676562666893,0.13948440551757812,-0.9899898767471313,0.0024999999441206455,0.0,0.0,0.0,0.0024999999441206455,0.0,0.0,0.0,0.0024999999441206455,0.0,0.0,0.0,0.019999999552965164,0.0,0.0,0.0,0.019999999552965164,0.0,0.0,0.0,0.019999999552965164,0.27234044671058655,-0.22266075015068054,9.769539833068848,0.03999999910593033,0.0,0.0,0.0,0.03999999910593033,0.0,0.0,0.0,0.03999999910593033
1778818961056689221,150677,1778818961039864999,imu_link,0.015294799581170082,0.014022414572536945,0.1394956409931183,-0.9900009036064148,0.0024999999441206455,0.0,0.0,0.0,0.0024999999441206455,0.0,0.0,0.0,0.0024999999441206455,0.0,0.0,0.0,0.019999999552965164,0.0,0.0,0.0,0.019999999552965164,0.0,0.0,0.0,0.019999999552965164,0.304063618183136,-0.22026655077934265,9.731831550598145,0.03999999910593033,0.0,0.0,0.0,0.03999999910593033,0.0,0.0,0.0,0.03999999910593033
1778818961062413166,150678,1778818961044864999,imu_link,0.014836198650300503,0.013825414702296257,0.13950036466121674,-0.9900099039077759,0.0024999999441206455,0.0,0.0,0.0,0.0024999999441206455,0.0,0.0,0.0,0.0024999999441206455,0.0,0.0,0.0,0.019999999552965164,0.0,0.0,0.0,0.019999999552965164,0.0,0.0,0.0,0.019999999552965164,0.29209259152412415,-0.2238578498363495,9.741408348083496,0.03999999910593033,0.0,0.0,0.0,0.03999999910593033,0.0,0.0,0.0,0.03999999910593033
1778818961068585535,150679,1778818961049864999,imu_link,0.014361385256052017,0.013669462874531746,0.13950584828853607,-0.990018367767334,0.0024999999441206455,0.0,0.0,0.0,0.0024999999441206455,0.0,0.0,0.0,0.0024999999441206455,0.0,0.0,0.0,0.019999999552965164,0.0,0.0,0.0,0.019999999552965164,0.0,0.0,0.0,0.019999999552965164,0.2890998423099518,-0.21188685297966003,9.743204116821289,0.03999999910593033,0.0,0.0,0.0,0.03999999910593033,0.0,0.0,0.0,0.03999999910593033
1778818961073968203,150680,1778818961054864999,imu_link,0.0139027563855052,0.013868473470211029,0.13951539993286133,-0.9900208115577698,0.0024999999441206455,0.0,0.0,0.0,0.0024999999441206455,0.0,0.0,0.0,0.0024999999441206455,0.0,0.0,0.0,0.019999999552965164,0.0,0.0,0.0,0.019999999552965164,0.0,0.0,0.0,0.019999999552965164,0.3100491166114807,-0.21547815203666687,9.750386238098145,0.03999999910593033,0.0,0.0,0.0,0.03999999910593033,0.0,0.0,0.0,0.03999999910593033
1778818961119141612,150681,1778818961118864999,imu_link,0.012624923139810562,0.01934238336980343,0.13959521055221558,-0.9899349212646484,0.0024999999441206455,0.0,0.0,0.0,0.0024999999441206455,0.0,0.0,0.0,0.0024999999441206455,0.0,0.0,0.0,0.019999999552965164,0.0,0.0,0.0,0.019999999552965164,0.0,0.0,0.0,0.019999999552965164,0.3148375153541565,-0.2172738015651703,9.722254753112793,0.03999999910593033,0.0,0.0,0.0,0.03999999910593033,0.0,0.0,0.0,0.03999999910593033
1778818961124982814,150682,1778818961120864999,imu_link,0.012556006200611591,0.018658986315131187,0.13958990573883057,-0.9899495840072632,0.0024999999441206455,0.0,0.0,0.0,0.0024999999441206455,0.0,0.0,0.0,0.0024999999441206455,0.0,0.0,0.0,0.019999999552965164,0.0,0.0,0.0,0.019999999552965164,0.0,0.0,0.0,0.019999999552965164,0.27653029561042786,-0.19572599232196808,9.717466354370117,0.03999999910593033,0.0,0.0,0.0,0.03999999910593033,0.0,0.0,0.0,0.03999999910593033
1778818961130556117,150683,1778818961125864999,imu_link,0.012556006200611591,0.018658986315131187,0.13958990573883057,-0.9899495840072632,0.0024999999441206455,0.0,0.0,0.0,0.0024999999441206455,0.0,0.0,0.0,0.0024999999441206455,0.0,0.0,0.0,0.019999999552965164,0.0,0.0,0.0,0.019999999552965164,0.0,0.0,0.0,0.019999999552965164,0.27653029561042786,-0.19572599232196808,9.717466354370117,0.03999999910593033,0.0,0.0,0.0,0.03999999910593033,0.0,0.0,0.0,0.03999999910593033
1778818961137841487,150684,1778818961130864999,imu_link,0.012511716224253178,0.017914526164531708,0.13958343863487244,-0.9899647831916809,0.0024999999441206455,0.0,0.0,0.0,0.0024999999441206455,0.0,0.0,0.0,0.0024999999441206455,0.0,0.0,0.0,0.019999999552965164,0.0,0.0,0.0,0.019999999552965164,0.0,0.0,0.0,0.019999999552965164,0.26994624733924866,-0.20231004059314728,9.77133560180664,0.03999999910593033,0.0,0.0,0.0,0.03999999910593033,0.0,0.0,0.0,0.03999999910593033
1778818961141491562,150685,1778818961135864999,imu_link,0.012637256644666195,0.01743086613714695,0.13957619667053223,-0.9899728894233704,0.0024999999441206455,0.0,0.0,0.0,0.0024999999441206455,0.0,0.0,0.0,0.0024999999441206455,0.0,0.0,0.0,0.019999999552965164,0.0,0.0,0.0,0.019999999552965164,0.0,0.0,0.0,0.019999999552965164,0.284311443567276,-0.23163901269435883,9.718064308166504,0.03999999910593033,0.0,0.0,0.0,0.03999999910593033,0.0,0.0,0.0,0.03999999910593033
1778818961147000533,150686,1778818961140864999,imu_link,0.012654178775846958,0.016931546851992607,0.13957080245018005,-0.9899820685386658,0.0024999999441206455,0.0,0.0,0.0,0.0024999999441206455,0.0,0.0,0.0,0.0024999999441206455,0.0,0.0,0.0,0.019999999552965164,0.0,0.0,0.0,0.019999999552965164,0.0,0.0,0.0,0.019999999552965164,0.2908954918384552,-0.2106897532939911,9.746794700622559,0.03999999910593033,0.0,0.0,0.0,0.03999999910593033,0.0,0.0,0.0,0.03999999910593033
1778818961154770015,150687,1778818961145864999,imu_link,0.012783698737621307,0.016199884936213493,0.13956093788146973,-0.9899941086769104,0.0024999999441206455,0.0,0.0,0.0,0.0024999999441206455,0.0,0.0,0.0,0.0024999999441206455,0.0,0.0,0.0,0.019999999552965164,0.0,0.0,0.0,0.019999999552965164,0.0,0.0,0.0,0.019999999552965164,0.2908954918384552,-0.2214636504650116,9.751583099365234,0.03999999910593033,0.0,0.0,0.0,0.03999999910593033,0.0,0.0,0.0,0.03999999910593033
1778818961177491716,150688,1778818961154864999,imu_link,0.01271730288863182,0.015271761454641819,0.13955238461494446,-0.9900108575820923,0.0024999999441206455,0.0,0.0,0.0,0.0024999999441206455,0.0,0.0,0.0,0.0024999999441206455,0.0,0.0,0.0,0.019999999552965164,0.0,0.0,0.0,0.019999999552965164,0.0,0.0,0.0,0.019999999552965164,0.284311443567276,-0.20709843933582306,9.744998931884766,0.03999999910593033,0.0,0.0,0.0,0.03999999910593033,0.0,0.0,0.0,0.03999999910593033
1778818961185721883,150689,1778818961159864999,imu_link,0.012538799084722996,0.014804969541728497,0.13955050706863403,-0.9900205135345459,0.0024999999441206455,0.0,0.0,0.0,0.0024999999441206455,0.0,0.0,0.0,0.0024999999441206455,0.0,0.0,0.0,0.019999999552965164,0.0,0.0,0.0,0.019999999552965164,0.0,0.0,0.0,0.019999999552965164,0.2885012924671173,-0.19452887773513794,9.739612579345703,0.03999999910593033,0.0,0.0,0.0,0.03999999910593033,0.0,0.0,0.0,0.03999999910593033
1778818961208219087,150690,1778818961210864999,imu_link,0.012842569500207901,0.010223195888102055,0.13949662446975708,-0.9900821447372437,0.0024999999441206455,0.0,0.0,0.0,0.0024999999441206455,0.0,0.0,0.0,0.0024999999441206455,0.0,0.0,0.0,0.019999999552965164,0.0,0.0,0.0,0.019999999552965164,0.0,0.0,0.0,0.019999999552965164,0.27653029561042786,-0.21128830313682556,9.758766174316406,0.03999999910593033,0.0,0.0,0.0,0.03999999910593033,0.0,0.0,0.0,0.03999999910593033
1778818961214032295,150691,1778818961212864999,imu_link,0.012571381404995918,0.010853401385247707,0.13950693607330322,-0.9900774359703064,0.0024999999441206455,0.0,0.0,0.0,0.0024999999441206455,0.0,0.0,0.0,0.0024999999441206455,0.0,0.0,0.0,0.019999999552965164,0.0,0.0,0.0,0.019999999552965164,0.0,0.0,0.0,0.019999999552965164,0.2693476974964142,-0.19812019169330597,9.758167266845703,0.03999999910593033,0.0,0.0,0.0,0.03999999910593033,0.0,0.0,0.0,0.03999999910593033
1778818961221171041,150692,1778818961217864999,imu_link,0.012571381404995918,0.010853401385247707,0.13950693607330322,-0.9900774359703064,0.0024999999441206455,0.0,0.0,0.0,0.0024999999441206455,0.0,0.0,0.0,0.0024999999441206455,0.0,0.0,0.0,0.019999999552965164,0.0,0.0,0.0,0.019999999552965164,0.0,0.0,0.0,0.019999999552965164,0.2693476974964142,-0.19812019169330597,9.758167266845703,0.03999999910593033,0.0,0.0,0.0,0.03999999910593033,0.0,0.0,0.0,0.03999999910593033
1778818961227858181,150693,1778818961222864999,imu_link,0.012643654830753803,0.011595353484153748,0.13951411843299866,-0.990067183971405,0.0024999999441206455,0.0,0.0,0.0,0.0024999999441206455,0.0,0.0,0.0,0.0024999999441206455,0.0,0.0,0.0,0.019999999552965164,0.0,0.0,0.0,0.019999999552965164,0.0,0.0,0.0,0.019999999552965164,0.29628247022628784,-0.21188685297966003,9.785700798034668,0.03999999910593033,0.0,0.0,0.0,0.03999999910593033,0.0,0.0,0.0,0.03999999910593033
1778818961231544519,150694,1778818961227864999,imu_link,0.012424605898559093,0.012044369243085384,0.13952189683914185,-0.9900634288787842,0.0024999999441206455,0.0,0.0,0.0,0.0024999999441206455,0.0,0.0,0.0,0.0024999999441206455,0.0,0.0,0.0,0.019999999552965164,0.0,0.0,0.0,0.019999999552965164,0.0,0.0,0.0,0.019999999552965164,0.2998737692832947,-0.18495208024978638,9.75637149810791,0.03999999910593033,0.0,0.0,0.0,0.03999999910593033,0.0,0.0,0.0,0.03999999910593033
1778818961237941097,150695,1778818961232864999,imu_link,0.013013539835810661,0.0124965850263834,0.139518603682518,-0.9900506734848022,0.0024999999441206455,0.0,0.0,0.0,0.0024999999441206455,0.0,0.0,0.0,0.0024999999441206455,0.0,0.0,0.0,0.019999999552965164,0.0,0.0,0.0,0.019999999552965164,0.0,0.0,0.0,0.019999999552965164,0.28790274262428284,-0.228047713637352,9.783306121826172,0.03999999910593033,0.0,0.0,0.0,0.03999999910593033,0.0,0.0,0.0,0.03999999910593033
1778818961244517517,150696,1778818961237864999,imu_link,0.013013539835810661,0.0124965850263834,0.139518603682518,-0.9900506734848022,0.0024999999441206455,0.0,0.0,0.0,0.0024999999441206455,0.0,0.0,0.0,0.0024999999441206455,0.0,0.0,0.0,0.019999999552965164,0.0,0.0,0.0,0.019999999552965164,0.0,0.0,0.0,0.019999999552965164,0.28790274262428284,-0.228047713637352,9.783306121826172,0.03999999910593033,0.0,0.0,0.0,0.03999999910593033,0.0,0.0,0.0,0.03999999910593033
1778818961269253438,150697,1778818961246864999,imu_link,0.013063402846455574,0.012609455734491348,0.1395190954208374,-0.9900486469268799,0.0024999999441206455,0.0,0.0,0.0,0.0024999999441206455,0.0,0.0,0.0,0.0024999999441206455,0.0,0.0,0.0,0.019999999552965164,0.0,0.0,0.0,0.019999999552965164,0.0,0.0,0.0,0.019999999552965164,0.2825157940387726,-0.21547815203666687,9.770736694335938,0.03999999910593033,0.0,0.0,0.0,0.03999999910593033,0.0,0.0,0.0,0.03999999910593033
1778818961293551442,150698,1778818961291864999,imu_link,0.00927254743874073,0.013861478306353092,0.1395862102508545,-0.9900650978088379,0.0024999999441206455,0.0,0.0,0.0,0.0024999999441206455,0.0,0.0,0.0,0.0024999999441206455,0.0,0.0,0.0,0.019999999552965164,0.0,0.0,0.0,0.019999999552965164,0.0,0.0,0.0,0.019999999552965164,0.28311434388160706,-0.1999158412218094,9.770736694335938,0.03999999910593033,0.0,0.0,0.0,0.03999999910593033,0.0,0.0,0.0,0.03999999910593033
1778818961301643993,150699,1778818961293864999,imu_link,0.009913908317685127,0.013613368384540081,0.13957473635673523,-0.9900639057159424,0.0024999999441206455,0.0,0.0,0.0,0.0024999999441206455,0.0,0.0,0.0,0.0024999999441206455,0.0,0.0,0.0,0.019999999552965164,0.0,0.0,0.0,0.019999999552965164,0.0,0.0,0.0,0.019999999552965164,0.2783259451389313,-0.20051439106464386,9.72285270690918,0.03999999910593033,0.0,0.0,0.0,0.03999999910593033,0.0,0.0,0.0,0.03999999910593033
1778818961307532739,150700,1778818961298864999,imu_link,0.009913908317685127,0.013613368384540081,0.13957473635673523,-0.9900639057159424,0.0024999999441206455,0.0,0.0,0.0,0.0024999999441206455,0.0,0.0,0.0,0.0024999999441206455,0.0,0.0,0.0,0.019999999552965164,0.0,0.0,0.0,0.019999999552965164,0.0,0.0,0.0,0.019999999552965164,0.2783259451389313,-0.20051439106464386,9.72285270690918,0.03999999910593033,0.0,0.0,0.0,0.03999999910593033,0.0,0.0,0.0,0.03999999910593033
1778818961313544617,150701,1778818961303864999,imu_link,0.010656982660293579,0.013546574860811234,0.13956314325332642,-0.9900588393211365,0.0024999999441206455,0.0,0.0,0.0,0.0024999999441206455,0.0,0.0,0.0,0.0024999999441206455,0.0,0.0,0.0,0.019999999552965164,0.0,0.0,0.0,0.019999999552965164,0.0,0.0,0.0,0.019999999552965164,0.2926911413669586,-0.21847090125083923,9.731831550598145,0.03999999910593033,0.0,0.0,0.0,0.03999999910593033,0.0,0.0,0.0,0.03999999910593033
1778818961320697553,150702,1778818961308864999,imu_link,0.011150148697197437,0.013466337695717812,0.13955508172512054,-0.9900556206703186,0.0024999999441206455,0.0,0.0,0.0,0.0024999999441206455,0.0,0.0,0.0,0.0024999999441206455,0.0,0.0,0.0,0.019999999552965164,0.0,0.0,0.0,0.019999999552965164,0.0,0.0,0.0,0.019999999552965164,0.2902969419956207,-0.22266075015068054,9.77372932434082,0.03999999910593033,0.0,0.0,0.0,0.03999999910593033,0.0,0.0,0.0,0.03999999910593033
1778818961326178312,150703,1778818961313864999,imu_link,0.011623738333582878,0.013305740430951118,0.13954652845859528,-0.9900534749031067,0.0024999999441206455,0.0,0.0,0.0,0.0024999999441206455,0.0,0.0,0.0,0.0024999999441206455,0.0,0.0,0.0,0.019999999552965164,0.0,0.0,0.0,0.019999999552965164,0.0,0.0,0.0,0.019999999552965164,0.2819172441959381,-0.22625206410884857,9.761758804321289,0.03999999910593033,0.0,0.0,0.0,0.03999999910593033,0.0,0.0,0.0,0.03999999910593033
1778818961332727384,150704,1778818961318864999,imu_link,0.012170203030109406,0.01380827184766531,0.13954326510429382,-0.9900405406951904,0.0024999999441206455,0.0,0.0,0.0,0.0024999999441206455,0.0,0.0,0.0,0.0024999999441206455,0.0,0.0,0.0,0.019999999552965164,0.0,0.0,0.0,0.019999999552965164,0.0,0.0,0.0,0.019999999552965164,0.3034650683403015,-0.20051439106464386,9.735422134399414,0.03999999910593033,0.0,0.0,0.0,0.03999999910593033,0.0,0.0,0.0,0.03999999910593033
1778818961360027138,150705,1778818961327864999,imu_link,0.012828560546040535,0.013150226324796677,0.13952642679214478,-0.9900436401367188,0.0024999999441206455,0.0,0.0,0.0,0.0024999999441206455,0.0,0.0,0.0,0.0024999999441206455,0.0,0.0,0.0,0.019999999552965164,0.0,0.0,0.0,0.019999999552965164,0.0,0.0,0.0,0.019999999552965164,0.2902969419956207,-0.20949263870716095,9.737217903137207,0.03999999910593033,0.0,0.0,0.0,0.03999999910593033,0.0,0.0,0.0,0.03999999910593033
1778818961384651774,150706,1778818961382864999,imu_link,0.009278877638280392,0.016658451408147812,0.13961540162563324,-0.9900178909301758,0.0024999999441206455,0.0,0.0,0.0,0.0024999999441206455,0.0,0.0,0.0,0.0024999999441206455,0.0,0.0,0.0,0.019999999552965164,0.0,0.0,0.0,0.019999999552965164,0.0,0.0,0.0,0.019999999552965164,0.3034650683403015,-0.19452887773513794,9.782109260559082,0.03999999910593033,0.0,0.0,0.0,0.03999999910593033,0.0,0.0,0.0,0.03999999910593033
1778818961390896244,150707,1778818961384864999,imu_link,0.009791207499802113,0.016198573634028435,0.13960309326648712,-0.9900223612785339,0.0024999999441206455,0.0,0.0,0.0,0.0024999999441206455,0.0,0.0,0.0,0.0024999999441206455,0.0,0.0,0.0,0.019999999552965164,0.0,0.0,0.0,0.019999999552965164,0.0,0.0,0.0,0.019999999552965164,0.2885012924671173,-0.22026655077934265,9.737217903137207,0.03999999910593033,0.0,0.0,0.0,0.03999999910593033,0.0,0.0,0.0,0.03999999910593033
1778818961395981278,150708,1778818961389864999,imu_link,0.009791207499802113,0.016198573634028435,0.13960309326648712,-0.9900223612785339,0.0024999999441206455,0.0,0.0,0.0,0.0024999999441206455,0.0,0.0,0.0,0.0024999999441206455,0.0,0.0,0.0,0.019999999552965164,0.0,0.0,0.0,0.019999999552965164,0.0,0.0,0.0,0.019999999552965164,0.2885012924671173,-0.22026655077934265,9.737217903137207,0.03999999910593033,0.0,0.0,0.0,0.03999999910593033,0.0,0.0,0.0,0.03999999910593033
1778818961401465824,150709,1778818961394864999,imu_link,0.01024280209094286,0.015605668537318707,0.1395907700061798,-0.990028977394104,0.0024999999441206455,0.0,0.0,0.0,0.0024999999441206455,0.0,0.0,0.0,0.0024999999441206455,0.0,0.0,0.0,0.019999999552965164,0.0,0.0,0.0,0.019999999552965164,0.0,0.0,0.0,0.019999999552965164,0.26994624733924866,-0.2172738015651703,9.786299705505371,0.03999999910593033,0.0,0.0,0.0,0.03999999910593033,0.0,0.0,0.0,0.03999999910593033
1778818961407050741,150710,1778818961399864999,imu_link,0.010454093106091022,0.014893898740410805,0.13958150148391724,-0.990039050579071,0.0024999999441206455,0.0,0.0,0.0,0.0024999999441206455,0.0,0.0,0.0,0.0024999999441206455,0.0,0.0,0.0,0.019999999552965164,0.0,0.0,0.0,0.019999999552965164,0.0,0.0,0.0,0.019999999552965164,0.2759317457675934,-0.17956513166427612,9.743204116821289,0.03999999910593033,0.0,0.0,0.0,0.03999999910593033,0.0,0.0,0.0,0.03999999910593033
1778818961412904854,150711,1778818961404864999,imu_link,0.010454093106091022,0.014893898740410805,0.13958150148391724,-0.990039050579071,0.0024999999441206455,0.0,0.0,0.0,0.0024999999441206455,0.0,0.0,0.0,0.0024999999441206455,0.0,0.0,0.0,0.019999999552965164,0.0,0.0,0.0,0.019999999552965164,0.0,0.0,0.0,0.019999999552965164,0.2759317457675934,-0.17956513166427612,9.743204116821289,0.03999999910593033,0.0,0.0,0.0,0.03999999910593033,0.0,0.0,0.0,0.03999999910593033
1778818961422062584,150712,1778818961409864999,imu_link,0.010720839723944664,0.014195684343576431,0.13957136869430542,-0.9900478720664978,0.0024999999441206455,0.0,0.0,0.0,0.0024999999441206455,0.0,0.0,0.0,0.0024999999441206455,0.0,0.0,0.0,0.019999999552965164,0.0,0.0,0.0,0.019999999552965164,0.0,0.0,0.0,0.019999999552965164,0.27413609623908997,-0.18614917993545532,9.79408073425293,0.03999999910593033,0.0,0.0,0.0,0.03999999910593033,0.0,0.0,0.0,0.03999999910593033
1778818961445228422,150713,1778818961418864999,imu_link,0.011878681369125843,0.014048192650079727,0.13955199718475342,-0.990039587020874,0.0024999999441206455,0.0,0.0,0.0,0.0024999999441206455,0.0,0.0,0.0,0.0024999999441206455,0.0,0.0,0.0,0.019999999552965164,0.0,0.0,0.0,0.019999999552965164,0.0,0.0,0.0,0.019999999552965164,0.304063618183136,-0.21667525172233582,9.749189376831055,0.03999999910593033,0.0,0.0,0.0,0.03999999910593033,0.0,0.0,0.0,0.03999999910593033
1778818961453943458,150714,1778818961423864999,imu_link,0.011878681369125843,0.014048192650079727,0.13955199718475342,-0.990039587020874,0.0024999999441206455,0.0,0.0,0.0,0.0024999999441206455,0.0,0.0,0.0,0.0024999999441206455,0.0,0.0,0.0,0.019999999552965164,0.0,0.0,0.0,0.019999999552965164,0.0,0.0,0.0,0.019999999552965164,0.304063618183136,-0.21667525172233582,9.749189376831055,0.03999999910593033,0.0,0.0,0.0,0.03999999910593033,0.0,0.0,0.0,0.03999999910593033
1778818961476015353,150715,1778818961469864999,imu_link,0.011344457045197487,0.009473462589085102,0.13951396942138672,-0.9901054501533508,0.0024999999441206455,0.0,0.0,0.0,0.0024999999441206455,0.0,0.0,0.0,0.0024999999441206455,0.0,0.0,0.0,0.019999999552965164,0.0,0.0,0.0,0.019999999552965164,0.0,0.0,0.0,0.019999999552965164,0.26755204796791077,-0.19213467836380005,9.75278091430664,0.03999999910593033,0.0,0.0,0.0,0.03999999910593033,0.0,0.0,0.0,0.03999999910593033
1778818961482491852,150716,1778818961471864999,imu_link,0.011548284441232681,0.010132143273949623,0.13951823115348816,-0.9900959730148315,0.0024999999441206455,0.0,0.0,0.0,0.0024999999441206455,0.0,0.0,0.0,0.0024999999441206455,0.0,0.0,0.0,0.019999999552965164,0.0,0.0,0.0,0.019999999552965164,0.0,0.0,0.0,0.019999999552965164,0.3016694188117981,-0.208295539021492,9.79647445678711,0.03999999910593033,0.0,0.0,0.0,0.03999999910593033,0.0,0.0,0.0,0.03999999910593033
1778818961489103835,150717,1778818961476864999,imu_link,0.011548284441232681,0.010132143273949623,0.13951823115348816,-0.9900959730148315,0.0024999999441206455,0.0,0.0,0.0,0.0024999999441206455,0.0,0.0,0.0,0.0024999999441206455,0.0,0.0,0.0,0.019999999552965164,0.0,0.0,0.0,0.019999999552965164,0.0,0.0,0.0,0.019999999552965164,0.3016694188117981,-0.208295539021492,9.79647445678711,0.03999999910593033,0.0,0.0,0.0,0.03999999910593033,0.0,0.0,0.0,0.03999999910593033
1778818961494527947,150718,1778818961481864999,imu_link,0.01186657976359129,0.010806828737258911,0.1395212560892105,-0.9900847673416138,0.0024999999441206455,0.0,0.0,0.0,0.0024999999441206455,0.0,0.0,0.0,0.0024999999441206455,0.0,0.0,0.0,0.019999999552965164,0.0,0.0,0.0,0.019999999552965164,0.0,0.0,0.0,0.019999999552965164,0.2783259451389313,-0.21128830313682556,9.743204116821289,0.03999999910593033,0.0,0.0,0.0,0.03999999910593033,0.0,0.0,0.0,0.03999999910593033
1778818961500138447,150719,1778818961486864999,imu_link,0.011935238726437092,0.011302165687084198,0.13952544331550598,-0.9900776743888855,0.0024999999441206455,0.0,0.0,0.0,0.0024999999441206455,0.0,0.0,0.0,0.0024999999441206455,0.0,0.0,0.0,0.019999999552965164,0.0,0.0,0.0,0.019999999552965164,0.0,0.0,0.0,0.019999999552965164,0.28790274262428284,-0.1999158412218094,9.759963035583496,0.03999999910593033,0.0,0.0,0.0,0.03999999910593033,0.0,0.0,0.0,0.03999999910593033
1778818961506762419,150720,1778818961491864999,imu_link,0.012320388108491898,0.011621246114373207,0.13952375948429108,-0.990069568157196,0.0024999999441206455,0.0,0.0,0.0,0.0024999999441206455,0.0,0.0,0.0,0.0024999999441206455,0.0,0.0,0.0,0.019999999552965164,0.0,0.0,0.0,0.019999999552965164,0.0,0.0,0.0,0.019999999552965164,0.27473464608192444,-0.2214636504650116,9.789292335510254,0.03999999910593033,0.0,0.0,0.0,0.03999999910593033,0.0,0.0,0.0,0.03999999910593033
1778818961511872739,150721,1778818961496864999,imu_link,0.012315304018557072,0.012121508829295635,0.13952909409999847,-0.9900628924369812,0.0024999999441206455,0.0,0.0,0.0,0.0024999999441206455,0.0,0.0,0.0,0.0024999999441206455,0.0,0.0,0.0,0.019999999552965164,0.0,0.0,0.0,0.019999999552965164,0.0,0.0,0.0,0.019999999552965164,0.27473464608192444,-0.2041056901216507,9.7605619430542,0.03999999910593033,0.0,0.0,0.0,0.03999999910593033,0.0,0.0,0.0,0.03999999910593033
1778818961556597541,150722,1778818961555864999,imu_link,0.014231666922569275,0.017519338056445122,0.13955803215503693,-0.9899522066116333,0.0024999999441206455,0.0,0.0,0.0,0.0024999999441206455,0.0,0.0,0.0,0.0024999999441206455,0.0,0.0,0.0,0.019999999552965164,0.0,0.0,0.0,0.019999999552965164,0.0,0.0,0.0,0.019999999552965164,0.28790274262428284,-0.21188685297966003,9.764152526855469,0.03999999910593033,0.0,0.0,0.0,0.03999999910593033,0.0,0.0,0.0,0.03999999910593033
1778818961562030517,150723,1778818961558864999,imu_link,0.013987394981086254,0.0168782826513052,0.13955526053905487,-0.9899672269821167,0.0024999999441206455,0.0,0.0,0.0,0.0024999999441206455,0.0,0.0,0.0,0.0024999999441206455,0.0,0.0,0.0,0.019999999552965164,0.0,0.0,0.0,0.019999999552965164,0.0,0.0,0.0,0.019999999552965164,0.2998737692832947,-0.20949263870716095,9.741408348083496,0.03999999910593033,0.0,0.0,0.0,0.03999999910593033,0.0,0.0,0.0,0.03999999910593033
1778818961567626754,150724,1778818961563864999,imu_link,0.013987394981086254,0.0168782826513052,0.13955526053905487,-0.9899672269821167,0.0024999999441206455,0.0,0.0,0.0,0.0024999999441206455,0.0,0.0,0.0,0.0024999999441206455,0.0,0.0,0.0,0.019999999552965164,0.0,0.0,0.0,0.019999999552965164,0.0,0.0,0.0,0.019999999552965164,0.2998737692832947,-0.20949263870716095,9.741408348083496,0.03999999910593033,0.0,0.0,0.0,0.03999999910593033,0.0,0.0,0.0,0.03999999910593033
1778818961572981710,150725,1778818961568864999,imu_link,0.013759847730398178,0.0161671694368124,0.1395512819290161,-0.9899827837944031,0.0024999999441206455,0.0,0.0,0.0,0.0024999999441206455,0.0,0.0,0.0,0.0024999999441206455,0.0,0.0,0.0,0.019999999552965164,0.0,0.0,0.0,0.019999999552965164,0.0,0.0,0.0,0.019999999552965164,0.284311443567276,-0.2106897532939911,9.75637149810791,0.03999999910593033,0.0,0.0,0.0,0.03999999910593033,0.0,0.0,0.0,0.03999999910593033
1778818961579259319,150726,1778818961573864999,imu_link,0.013541572727262974,0.015459888614714146,0.13954712450504303,-0.9899976849555969,0.0024999999441206455,0.0,0.0,0.0,0.0024999999441206455,0.0,0.0,0.0,0.0024999999441206455,0.0,0.0,0.0,0.019999999552965164,0.0,0.0,0.0,0.019999999552965164,0.0,0.0,0.0,0.019999999552965164,0.2795230448246002,-0.2106897532939911,9.7605619430542,0.03999999910593033,0.0,0.0,0.0,0.03999999910593033,0.0,0.0,0.0,0.03999999910593033
1778818961586170954,150727,1778818961578864999,imu_link,0.013541572727262974,0.015459888614714146,0.13954712450504303,-0.9899976849555969,0.0024999999441206455,0.0,0.0,0.0,0.0024999999441206455,0.0,0.0,0.0,0.0024999999441206455,0.0,0.0,0.0,0.019999999552965164,0.0,0.0,0.0,0.019999999552965164,0.0,0.0,0.0,0.019999999552965164,0.2795230448246002,-0.2106897532939911,9.7605619430542,0.03999999910593033,0.0,0.0,0.0,0.03999999910593033,0.0,0.0,0.0,0.03999999910593033
1778818961591776083,150728,1778818961583864999,imu_link,0.013384362682700157,0.014731580391526222,0.1395416110754013,-0.9900118112564087,0.0024999999441206455,0.0,0.0,0.0,0.0024999999441206455,0.0,0.0,0.0,0.0024999999441206455,0.0,0.0,0.0,0.019999999552965164,0.0,0.0,0.0,0.019999999552965164,0.0,0.0,0.0,0.019999999552965164,0.25977087020874023,-0.21368250250816345,9.734225273132324,0.03999999910593033,0.0,0.0,0.0,0.03999999910593033,0.0,0.0,0.0,0.03999999910593033
1778818961617142129,150729,1778818961592864999,imu_link,0.012536388821899891,0.013922684825956821,0.13954642415046692,-0.9900339841842651,0.0024999999441206455,0.0,0.0,0.0,0.0024999999441206455,0.0,0.0,0.0,0.0024999999441206455,0.0,0.0,0.0,0.019999999552965164,0.0,0.0,0.0,0.019999999552965164,0.0,0.0,0.0,0.019999999552965164,0.2801215946674347,-0.18614917993545532,9.738415718078613,0.03999999910593033,0.0,0.0,0.0,0.03999999910593033,0.0,0.0,0.0,0.03999999910593033
1778818961623604797,150730,1778818961597864999,imu_link,0.012536388821899891,0.013922684825956821,0.13954642415046692,-0.9900339841842651,0.0024999999441206455,0.0,0.0,0.0,0.0024999999441206455,0.0,0.0,0.0,0.0024999999441206455,0.0,0.0,0.0,0.019999999552965164,0.0,0.0,0.0,0.019999999552965164,0.0,0.0,0.0,0.019999999552965164,0.2801215946674347,-0.18614917993545532,9.738415718078613,0.03999999910593033,0.0,0.0,0.0,0.03999999910593033,0.0,0.0,0.0,0.03999999910593033
1778818961646814740,150731,1778818961646864999,imu_link,0.01719525083899498,0.012092637829482555,0.13945311307907104,-0.9900012016296387,0.0024999999441206455,0.0,0.0,0.0,0.0024999999441206455,0.0,0.0,0.0,0.0024999999441206455,0.0,0.0,0.0,0.019999999552965164,0.0,0.0,0.0,0.019999999552965164,0.0,0.0,0.0,0.019999999552965164,0.2974795699119568,-0.22625206410884857,9.739013671875,0.03999999910593033,0.0,0.0,0.0,0.03999999910593033,0.0,0.0,0.0,0.03999999910593033
1778818961654074072,150732,1778818961649864999,imu_link,0.016508618369698524,0.01212021429091692,0.1394633650779724,-0.9900110363960266,0.0024999999441206455,0.0,0.0,0.0,0.0024999999441206455,0.0,0.0,0.0,0.0024999999441206455,0.0,0.0,0.0,0.019999999552965164,0.0,0.0,0.0,0.019999999552965164,0.0,0.0,0.0,0.019999999552965164,0.2711433470249176,-0.2148796021938324,9.718064308166504,0.03999999910593033,0.0,0.0,0.0,0.03999999910593033,0.0,0.0,0.0,0.03999999910593033
1778818961659776333,150733,1778818961654864999,imu_link,0.01601380668580532,0.012189858593046665,0.13947144150733948,-0.9900172352790833,0.0024999999441206455,0.0,0.0,0.0,0.0024999999441206455,0.0,0.0,0.0,0.0024999999441206455,0.0,0.0,0.0,0.019999999552965164,0.0,0.0,0.0,0.019999999552965164,0.0,0.0,0.0,0.019999999552965164,0.27892449498176575,-0.20051439106464386,9.744998931884766,0.03999999910593033,0.0,0.0,0.0,0.03999999910593033,0.0,0.0,0.0,0.03999999910593033
1778818961665612085,150734,1778818961659864999,imu_link,0.01601380668580532,0.012189858593046665,0.13947144150733948,-0.9900172352790833,0.0024999999441206455,0.0,0.0,0.0,0.0024999999441206455,0.0,0.0,0.0,0.0024999999441206455,0.0,0.0,0.0,0.019999999552965164,0.0,0.0,0.0,0.019999999552965164,0.0,0.0,0.0,0.019999999552965164,0.27892449498176575,-0.20051439106464386,9.744998931884766,0.03999999910593033,0.0,0.0,0.0,0.03999999910593033,0.0,0.0,0.0,0.03999999910593033
1778818961671507793,150735,1778818961664864999,imu_link,0.015305246226489544,0.012427568435668945,0.13948489725589752,-0.9900235533714294,0.0024999999441206455,0.0,0.0,0.0,0.0024999999441206455,0.0,0.0,0.0,0.0024999999441206455,0.0,0.0,0.0,0.019999999552965164,0.0,0.0,0.0,0.019999999552965164,0.0,0.0,0.0,0.019999999552965164,0.28969839215278625,-0.21787235140800476,9.743204116821289,0.03999999910593033,0.0,0.0,0.0,0.03999999910593033,0.0,0.0,0.0,0.03999999910593033
1778818961676783153,150736,1778818961669864999,imu_link,0.014845011755824089,0.012624314054846764,0.1394941657781601,-0.9900267124176025,0.0024999999441206455,0.0,0.0,0.0,0.0024999999441206455,0.0,0.0,0.0,0.0024999999441206455,0.0,0.0,0.0,0.019999999552965164,0.0,0.0,0.0,0.019999999552965164,0.0,0.0,0.0,0.019999999552965164,0.2992752194404602,-0.19692309200763702,9.749189376831055,0.03999999910593033,0.0,0.0,0.0,0.03999999910593033,0.0,0.0,0.0,0.03999999910593033
1778818961683613529,150737,1778818961674864999,imu_link,0.014396633952856064,0.012845009565353394,0.13950353860855103,-0.9900292158126831,0.0024999999441206455,0.0,0.0,0.0,0.0024999999441206455,0.0,0.0,0.0,0.0024999999441206455,0.0,0.0,0.0,0.019999999552965164,0.0,0.0,0.0,0.019999999552965164,0.0,0.0,0.0,0.019999999552965164,0.30047231912612915,-0.20051439106464386,9.726444244384766,0.03999999910593033,0.0,0.0,0.0,0.03999999910593033,0.0,0.0,0.0,0.03999999910593033
1778818961708706237,150738,1778818961683864999,imu_link,0.013510523363947868,0.01361218374222517,0.13952606916427612,-0.9900283813476562,0.0024999999441206455,0.0,0.0,0.0,0.0024999999441206455,0.0,0.0,0.0,0.0024999999441206455,0.0,0.0,0.0,0.019999999552965164,0.0,0.0,0.0,0.019999999552965164,0.0,0.0,0.0,0.019999999552965164,0.2950853407382965,-0.2298433631658554,9.730633735656738,0.03999999910593033,0.0,0.0,0.0,0.03999999910593033,0.0,0.0,0.0,0.03999999910593033
1778818961717031121,150739,1778818961688864999,imu_link,0.013510523363947868,0.01361218374222517,0.13952606916427612,-0.9900283813476562,0.0024999999441206455,0.0,0.0,0.0,0.0024999999441206455,0.0,0.0,0.0,0.0024999999441206455,0.0,0.0,0.0,0.019999999552965164,0.0,0.0,0.0,0.019999999552965164,0.0,0.0,0.0,0.019999999552965164,0.2950853407382965,-0.2298433631658554,9.730633735656738,0.03999999910593033,0.0,0.0,0.0,0.03999999910593033,0.0,0.0,0.0,0.03999999910593033
1778818961723072119,150740,1778818961693864999,imu_link,0.01295436080545187,0.013113428838551044,0.13952884078025818,-0.9900420904159546,0.0024999999441206455,0.0,0.0,0.0,0.0024999999441206455,0.0,0.0,0.0,0.0024999999441206455,0.0,0.0,0.0,0.019999999552965164,0.0,0.0,0.0,0.019999999552965164,0.0,0.0,0.0,0.019999999552965164,0.29388824105262756,-0.2190694510936737,9.728240013122559,0.03999999910593033,0.0,0.0,0.0,0.03999999910593033,0.0,0.0,0.0,0.03999999910593033
1778818961728591684,150741,1778818961698864999,imu_link,0.01252805907279253,0.012851946987211704,0.13953225314617157,-0.9900504946708679,0.0024999999441206455,0.0,0.0,0.0,0.0024999999441206455,0.0,0.0,0.0,0.0024999999441206455,0.0,0.0,0.0,0.019999999552965164,0.0,0.0,0.0,0.019999999552965164,0.0,0.0,0.0,0.019999999552965164,0.27234044671058655,-0.19452887773513794,9.774328231811523,0.03999999910593033,0.0,0.0,0.0,0.03999999910593033,0.0,0.0,0.0,0.03999999910593033
1778818961753449394,150742,1778818961753864999,imu_link,0.014447078108787537,0.017831875011324883,0.13955534994602203,-0.9899439811706543,0.0024999999441206455,0.0,0.0,0.0,0.0024999999441206455,0.0,0.0,0.0,0.0024999999441206455,0.0,0.0,0.0,0.019999999552965164,0.0,0.0,0.0,0.019999999552965164,0.0,0.0,0.0,0.019999999552965164,0.3100491166114807,-0.21368250250816345,9.765948295593262,0.03999999910593033,0.0,0.0,0.0,0.03999999910593033,0.0,0.0,0.0,0.03999999910593033
1778818961759233395,150743,1778818961756864999,imu_link,0.014283739030361176,0.017162876203656197,0.1395506113767624,-0.9899587631225586,0.0024999999441206455,0.0,0.0,0.0,0.0024999999441206455,0.0,0.0,0.0,0.0024999999441206455,0.0,0.0,0.0,0.019999999552965164,0.0,0.0,0.0,0.019999999552965164,0.0,0.0,0.0,0.019999999552965164,0.30705636739730835,-0.22266075015068054,9.73781681060791,0.03999999910593033,0.0,0.0,0.0,0.03999999910593033,0.0,0.0,0.0,0.03999999910593033
1778818961764772345,150744,1778818961761864999,imu_link,0.014283739030361176,0.017162876203656197,0.1395506113767624,-0.9899587631225586,0.0024999999441206455,0.0,0.0,0.0,0.0024999999441206455,0.0,0.0,0.0,0.0024999999441206455,0.0,0.0,0.0,0.019999999552965164,0.0,0.0,0.0,0.019999999552965164,0.0,0.0,0.0,0.019999999552965164,0.30705636739730835,-0.22266075015068054,9.73781681060791,0.03999999910593033,0.0,0.0,0.0,0.03999999910593033,0.0,0.0,0.0,0.03999999910593033
1778818961770222957,150745,1778818961766864999,imu_link,0.014137395657598972,0.016430184245109558,0.13954474031925201,-0.9899741411209106,0.0024999999441206455,0.0,0.0,0.0,0.0024999999441206455,0.0,0.0,0.0,0.0024999999441206455,0.0,0.0,0.0,0.019999999552965164,0.0,0.0,0.0,0.019999999552965164,0.0,0.0,0.0,0.019999999552965164,0.284311443567276,-0.22445639967918396,9.757569313049316,0.03999999910593033,0.0,0.0,0.0,0.03999999910593033,0.0,0.0,0.0,0.03999999910593033
1778818961776965934,150746,1778818961771864999,imu_link,0.013957764953374863,0.0159644465893507,0.13954254984855652,-0.9899846315383911,0.0024999999441206455,0.0,0.0,0.0,0.0024999999441206455,0.0,0.0,0.0,0.0024999999441206455,0.0,0.0,0.0,0.019999999552965164,0.0,0.0,0.0,0.019999999552965164,0.0,0.0,0.0,0.019999999552965164,0.27712884545326233,-0.21009118854999542,9.749787330627441,0.03999999910593033,0.0,0.0,0.0,0.03999999910593033,0.0,0.0,0.0,0.03999999910593033
1778818961784206512,150747,1778818961776864999,imu_link,0.013689272105693817,0.015543290413916111,0.13954241573810577,-0.9899951219558716,0.0024999999441206455,0.0,0.0,0.0,0.0024999999441206455,0.0,0.0,0.0,0.0024999999441206455,0.0,0.0,0.0,0.019999999552965164,0.0,0.0,0.0,0.019999999552965164,0.0,0.0,0.0,0.019999999552965164,0.2950853407382965,-0.20290859043598175,9.767146110534668,0.03999999910593033,0.0,0.0,0.0,0.03999999910593033,0.0,0.0,0.0,0.03999999910593033
1778818961789846278,150748,1778818961781864999,imu_link,0.013111378066241741,0.015081155113875866,0.13954709470272064,-0.9900093078613281,0.0024999999441206455,0.0,0.0,0.0,0.0024999999441206455,0.0,0.0,0.0,0.0024999999441206455,0.0,0.0,0.0,0.019999999552965164,0.0,0.0,0.0,0.019999999552965164,0.0,0.0,0.0,0.019999999552965164,0.295683890581131,-0.1825578808784485,9.758167266845703,0.03999999910593033,0.0,0.0,0.0,0.03999999910593033,0.0,0.0,0.0,0.03999999910593033
1778818961818938047,150749,1778818961790864999,imu_link,0.012795590795576572,0.014214059337973595,0.13954292237758636,-0.9900270700454712,0.0024999999441206455,0.0,0.0,0.0,0.0024999999441206455,0.0,0.0,0.0,0.0024999999441206455,0.0,0.0,0.0,0.019999999552965164,0.0,0.0,0.0,0.019999999552965164,0.0,0.0,0.0,0.019999999552965164,0.2861070930957794,-0.20350714027881622,9.747992515563965,0.03999999910593033,0.0,0.0,0.0,0.03999999910593033,0.0,0.0,0.0,0.03999999910593033
1778818961825095993,150750,1778818961795864999,imu_link,0.012795590795576572,0.014214059337973595,0.13954292237758636,-0.9900270700454712,0.0024999999441206455,0.0,0.0,0.0,0.0024999999441206455,0.0,0.0,0.0,0.0024999999441206455,0.0,0.0,0.0,0.019999999552965164,0.0,0.0,0.0,0.019999999552965164,0.0,0.0,0.0,0.019999999552965164,0.2861070930957794,-0.20350714027881622,9.747992515563965,0.03999999910593033,0.0,0.0,0.0,0.03999999910593033,0.0,0.0,0.0,0.03999999910593033
1778818961831083480,150751,1778818961800864999,imu_link,0.012929490767419338,0.01348111592233181,0.1395329236984253,-0.9900369048118591,0.0024999999441206455,0.0,0.0,0.0,0.0024999999441206455,0.0,0.0,0.0,0.0024999999441206455,0.0,0.0,0.0,0.019999999552965164,0.0,0.0,0.0,0.019999999552965164,0.0,0.0,0.0,0.019999999552965164,0.2914940416812897,-0.21428105235099792,9.744400978088379,0.03999999910593033,0.0,0.0,0.0,0.03999999910593033,0.0,0.0,0.0,0.03999999910593033
1778818961856110396,150752,1778818961859864999,imu_link,0.008631760254502296,0.009810960851609707,0.13955575227737427,-0.9901236891746521,0.0024999999441206455,0.0,0.0,0.0,0.0024999999441206455,0.0,0.0,0.0,0.0024999999441206455,0.0,0.0,0.0,0.019999999552965164,0.0,0.0,0.0,0.019999999552965164,0.0,0.0,0.0,0.019999999552965164,0.284311443567276,-0.20290859043598175,9.780313491821289,0.03999999910593033,0.0,0.0,0.0,0.03999999910593033,0.0,0.0,0.0,0.03999999910593033
1778818961861445394,150753,1778818961861864999,imu_link,0.009166179224848747,0.010246619582176208,0.1395530104637146,-0.9901148080825806,0.0024999999441206455,0.0,0.0,0.0,0.0024999999441206455,0.0,0.0,0.0,0.0024999999441206455,0.0,0.0,0.0,0.019999999552965164,0.0,0.0,0.0,0.019999999552965164,0.0,0.0,0.0,0.019999999552965164,0.2968810200691223,-0.21787235140800476,9.713275909423828,0.03999999910593033,0.0,0.0,0.0,0.03999999910593033,0.0,0.0,0.0,0.03999999910593033
1778818961866790831,150754,1778818961866864999,imu_link,0.009556981734931469,0.010559082962572575,0.13955092430114746,-0.9901081323623657,0.0024999999441206455,0.0,0.0,0.0,0.0024999999441206455,0.0,0.0,0.0,0.0024999999441206455,0.0,0.0,0.0,0.019999999552965164,0.0,0.0,0.0,0.019999999552965164,0.0,0.0,0.0,0.019999999552965164,0.2890998423099518,-0.21188685297966003,9.709086418151855,0.03999999910593033,0.0,0.0,0.0,0.03999999910593033,0.0,0.0,0.0,0.03999999910593033
1778818961872454287,150755,1778818961871864999,imu_link,0.00989893265068531,0.010923373512923717,0.13954979181289673,-0.9901009798049927,0.0024999999441206455,0.0,0.0,0.0,0.0024999999441206455,0.0,0.0,0.0,0.0024999999441206455,0.0,0.0,0.0,0.019999999552965164,0.0,0.0,0.0,0.019999999552965164,0.0,0.0,0.0,0.019999999552965164,0.2950853407382965,-0.2017114907503128,9.770736694335938,0.03999999910593033,0.0,0.0,0.0,0.03999999910593033,0.0,0.0,0.0,0.03999999910593033
1778818961878045907,150756,1778818961876864999,imu_link,0.00989893265068531,0.010923373512923717,0.13954979181289673,-0.9901009798049927,0.0024999999441206455,0.0,0.0,0.0,0.0024999999441206455,0.0,0.0,0.0,0.0024999999441206455,0.0,0.0,0.0,0.019999999552965164,0.0,0.0,0.0,0.019999999552965164,0.0,0.0,0.0,0.019999999552965164,0.2950853407382965,-0.2017114907503128,9.770736694335938,0.03999999910593033,0.0,0.0,0.0,0.03999999910593033,0.0,0.0,0.0,0.03999999910593033
1778818961885845985,150757,1778818961881864999,imu_link,0.010472068563103676,0.011403201147913933,0.139546737074852,-0.9900901317596436,0.0024999999441206455,0.0,0.0,0.0,0.0024999999441206455,0.0,0.0,0.0,0.0024999999441206455,0.0,0.0,0.0,0.019999999552965164,0.0,0.0,0.0,0.019999999552965164,0.0,0.0,0.0,0.019999999552965164,0.28311434388160706,-0.20231004059314728,9.728838920593262,0.03999999910593033,0.0,0.0,0.0,0.03999999910593033,0.0,0.0,0.0,0.03999999910593033
1778818961891840833,150758,1778818961886864999,imu_link,0.011180388741195202,0.011617839336395264,0.13953953981399536,-0.9900808334350586,0.0024999999441206455,0.0,0.0,0.0,0.0024999999441206455,0.0,0.0,0.0,0.0024999999441206455,0.0,0.0,0.0,0.019999999552965164,0.0,0.0,0.0,0.019999999552965164,0.0,0.0,0.0,0.019999999552965164,0.27473464608192444,-0.22685061395168304,9.758766174316406,0.03999999910593033,0.0,0.0,0.0,0.03999999910593033,0.0,0.0,0.0,0.03999999910593033
1778818961919584128,150759,1778818961895864999,imu_link,0.01183346752077341,0.012271584011614323,0.13953714072704315,-0.9900657534599304,0.0024999999441206455,0.0,0.0,0.0,0.0024999999441206455,0.0,0.0,0.0,0.0024999999441206455,0.0,0.0,0.0,0.019999999552965164,0.0,0.0,0.0,0.019999999552965164,0.0,0.0,0.0,0.019999999552965164,0.27712884545326233,-0.20111294090747833,9.721056938171387,0.03999999910593033,0.0,0.0,0.0,0.03999999910593033,0.0,0.0,0.0,0.03999999910593033
1778818961925124722,150760,1778818961900864999,imu_link,0.01183346752077341,0.012271584011614323,0.13953714072704315,-0.9900657534599304,0.0024999999441206455,0.0,0.0,0.0,0.0024999999441206455,0.0,0.0,0.0,0.0024999999441206455,0.0,0.0,0.0,0.019999999552965164,0.0,0.0,0.0,0.019999999552965164,0.0,0.0,0.0,0.019999999552965164,0.27712884545326233,-0.20111294090747833,9.721056938171387,0.03999999910593033,0.0,0.0,0.0,0.03999999910593033,0.0,0.0,0.0,0.03999999910593033
1778818961930533530,150761,1778818961905864999,imu_link,0.011748728342354298,0.013010945171117783,0.13954566419124603,-0.9900561571121216,0.0024999999441206455,0.0,0.0,0.0,0.0024999999441206455,0.0,0.0,0.0,0.0024999999441206455,0.0,0.0,0.0,0.019999999552965164,0.0,0.0,0.0,0.019999999552965164,0.0,0.0,0.0,0.019999999552965164,0.2795230448246002,-0.193331778049469,9.779715538024902,0.03999999910593033,0.0,0.0,0.0,0.03999999910593033,0.0,0.0,0.0,0.03999999910593033
1778818961936138397,150762,1778818961910864999,imu_link,0.012288430705666542,0.013520297594368458,0.13954277336597443,-0.9900431036949158,0.0024999999441206455,0.0,0.0,0.0,0.0024999999441206455,0.0,0.0,0.0,0.0024999999441206455,0.0,0.0,0.0,0.019999999552965164,0.0,0.0,0.0,0.019999999552965164,0.0,0.0,0.0,0.019999999552965164,0.30286651849746704,-0.20709843933582306,9.762955665588379,0.03999999910593033,0.0,0.0,0.0,0.03999999910593033,0.0,0.0,0.0,0.03999999910593033
1778818961961201388,150763,1778818961960864999,imu_link,0.01681499369442463,0.014371197670698166,0.13948166370391846,-0.989973247051239,0.0024999999441206455,0.0,0.0,0.0,0.0024999999441206455,0.0,0.0,0.0,0.0024999999441206455,0.0,0.0,0.0,0.019999999552965164,0.0,0.0,0.0,0.019999999552965164,0.0,0.0,0.0,0.019999999552965164,0.3010708689689636,-0.2190694510936737,9.756970405578613,0.03999999910593033,0.0,0.0,0.0,0.03999999910593033,0.0,0.0,0.0,0.03999999910593033
1778818961966951563,150764,1778818961963864999,imu_link,0.016155166551470757,0.014183145947754383,0.1394898146390915,-0.9899857044219971,0.0024999999441206455,0.0,0.0,0.0,0.0024999999441206455,0.0,0.0,0.0,0.0024999999441206455,0.0,0.0,0.0,0.019999999552965164,0.0,0.0,0.0,0.019999999552965164,0.0,0.0,0.0,0.019999999552965164,0.2914940416812897,-0.21308395266532898,9.765350341796875,0.03999999910593033,0.0,0.0,0.0,0.03999999910593033,0.0,0.0,0.0,0.03999999910593033
1778818961972299719,150765,1778818961968864999,imu_link,0.015661099925637245,0.01410277746617794,0.13949674367904663,-0.9899939298629761,0.0024999999441206455,0.0,0.0,0.0,0.0024999999441206455,0.0,0.0,0.0,0.0024999999441206455,0.0,0.0,0.0,0.019999999552965164,0.0,0.0,0.0,0.019999999552965164,0.0,0.0,0.0,0.019999999552965164,0.29867666959762573,-0.2106897532939911,9.758167266845703,0.03999999910593033,0.0,0.0,0.0,0.03999999910593033,0.0,0.0,0.0,0.03999999910593033
1778818961978228546,150766,1778818961973864999,imu_link,0.015661099925637245,0.01410277746617794,0.13949674367904663,-0.9899939298629761,0.0024999999441206455,0.0,0.0,0.0,0.0024999999441206455,0.0,0.0,0.0,0.0024999999441206455,0.0,0.0,0.0,0.019999999552965164,0.0,0.0,0.0,0.019999999552965164,0.0,0.0,0.0,0.019999999552965164,0.29867666959762573,-0.2106897532939911,9.758167266845703,0.03999999910593033,0.0,0.0,0.0,0.03999999910593033,0.0,0.0,0.0,0.03999999910593033
1778818961986072654,150767,1778818961978864999,imu_link,0.015015846118330956,0.013726749457418919,0.13950203359127045,-0.9900084733963013,0.0024999999441206455,0.0,0.0,0.0,0.0024999999441206455,0.0,0.0,0.0,0.0024999999441206455,0.0,0.0,0.0,0.019999999552965164,0.0,0.0,0.0,0.019999999552965164,0.0,0.0,0.0,0.019999999552965164,0.2861070930957794,-0.228047713637352,9.703699111938477,0.03999999910593033,0.0,0.0,0.0,0.03999999910593033,0.0,0.0,0.0,0.03999999910593033
1778818961991365561,150768,1778818961983864999,imu_link,0.01466444879770279,0.013371620327234268,0.13950292766094208,-0.9900184869766235,0.0024999999441206455,0.0,0.0,0.0,0.0024999999441206455,0.0,0.0,0.0,0.0024999999441206455,0.0,0.0,0.0,0.019999999552965164,0.0,0.0,0.0,0.019999999552965164,0.0,0.0,0.0,0.019999999552965164,0.29628247022628784,-0.2454056739807129,9.736021041870117,0.03999999910593033,0.0,0.0,0.0,0.03999999910593033,0.0,0.0,0.0,0.03999999910593033
1778818961997048782,150769,1778818961988864999,imu_link,0.013923916034400463,0.013339458033442497,0.1395138055086136,-0.9900280237197876,0.0024999999441206455,0.0,0.0,0.0,0.0024999999441206455,0.0,0.0,0.0,0.0024999999441206455,0.0,0.0,0.0,0.019999999552965164,0.0,0.0,0.0,0.019999999552965164,0.0,0.0,0.0,0.019999999552965164,0.2926911413669586,-0.21368250250816345,9.773131370544434,0.03999999910593033,0.0,0.0,0.0,0.03999999910593033,0.0,0.0,0.0,0.03999999910593033
1778818962023834229,150770,1778818961997864999,imu_link,0.013072606176137924,0.012981857173144817,0.13952237367630005,-0.9900431632995605,0.0024999999441206455,0.0,0.0,0.0,0.0024999999441206455,0.0,0.0,0.0,0.0024999999441206455,0.0,0.0,0.0,0.019999999552965164,0.0,0.0,0.0,0.019999999552965164,0.0,0.0,0.0,0.019999999552965164,0.2819172441959381,-0.21009118854999542,9.736021041870117,0.03999999910593033,0.0,0.0,0.0,0.03999999910593033,0.0,0.0,0.0,0.03999999910593033
1778818962029780742,150771,1778818962002864999,imu_link,0.013072606176137924,0.012981857173144817,0.13952237367630005,-0.9900431632995605,0.0024999999441206455,0.0,0.0,0.0,0.0024999999441206455,0.0,0.0,0.0,0.0024999999441206455,0.0,0.0,0.0,0.019999999552965164,0.0,0.0,0.0,0.019999999552965164,0.0,0.0,0.0,0.019999999552965164,0.2819172441959381,-0.21009118854999542,9.736021041870117,0.03999999910593033,0.0,0.0,0.0,0.03999999910593033,0.0,0.0,0.0,0.03999999910593033
1778818962054087855,150772,1778818962052864999,imu_link,0.0086964201182127,0.01056743785738945,0.13955800235271454,-0.9901149868965149,0.0024999999441206455,0.0,0.0,0.0,0.0024999999441206455,0.0,0.0,0.0,0.0024999999441206455,0.0,0.0,0.0,0.019999999552965164,0.0,0.0,0.0,0.019999999552965164,0.0,0.0,0.0,0.019999999552965164,0.27653029561042786,-0.20470423996448517,9.713275909423828,0.03999999910593033,0.0,0.0,0.0,0.03999999910593033,0.0,0.0,0.0,0.03999999910593033
1778818962059999328,150773,1778818962054864999,imu_link,0.009294086135923862,0.010910631157457829,0.13955344259738922,-0.990106463432312,0.0024999999441206455,0.0,0.0,0.0,0.0024999999441206455,0.0,0.0,0.0,0.0024999999441206455,0.0,0.0,0.0,0.019999999552965164,0.0,0.0,0.0,0.019999999552965164,0.0,0.0,0.0,0.019999999552965164,0.28730419278144836,-0.21547815203666687,9.762357711791992,0.03999999910593033,0.0,0.0,0.0,0.03999999910593033,0.0,0.0,0.0,0.03999999910593033
1778818962065423067,150774,1778818962059864999,imu_link,0.009743901900947094,0.011129113845527172,0.13954967260360718,-0.9901003241539001,0.0024999999441206455,0.0,0.0,0.0,0.0024999999441206455,0.0,0.0,0.0,0.0024999999441206455,0.0,0.0,0.0,0.019999999552965164,0.0,0.0,0.0,0.019999999552965164,0.0,0.0,0.0,0.019999999552965164,0.2819172441959381,-0.2172738015651703,9.784503936767578,0.03999999910593033,0.0,0.0,0.0,0.03999999910593033,0.0,0.0,0.0,0.03999999910593033
1778818962071588983,150775,1778818962064864999,imu_link,0.009743901900947094,0.011129113845527172,0.13954967260360718,-0.9901003241539001,0.0024999999441206455,0.0,0.0,0.0,0.0024999999441206455,0.0,0.0,0.0,0.0024999999441206455,0.0,0.0,0.0,0.019999999552965164,0.0,0.0,0.0,0.019999999552965164,0.0,0.0,0.0,0.019999999552965164,0.2819172441959381,-0.2172738015651703,9.784503936767578,0.03999999910593033,0.0,0.0,0.0,0.03999999910593033,0.0,0.0,0.0,0.03999999910593033
1778818962077031593,150776,1778818962069864999,imu_link,0.010438202880322933,0.011404821649193764,0.13954325020313263,-0.9900909066200256,0.0024999999441206455,0.0,0.0,0.0,0.0024999999441206455,0.0,0.0,0.0,0.0024999999441206455,0.0,0.0,0.0,0.019999999552965164,0.0,0.0,0.0,0.019999999552965164,0.0,0.0,0.0,0.019999999552965164,0.2777273952960968,-0.22086510062217712,9.771934509277344,0.03999999910593033,0.0,0.0,0.0,0.03999999910593033,0.0,0.0,0.0,0.03999999910593033
1778818962086191722,150777,1778818962074864999,imu_link,0.010883841663599014,0.01163115631788969,0.13953953981399536,-0.9900839924812317,0.0024999999441206455,0.0,0.0,0.0,0.0024999999441206455,0.0,0.0,0.0,0.0024999999441206455,0.0,0.0,0.0,0.019999999552965164,0.0,0.0,0.0,0.019999999552965164,0.0,0.0,0.0,0.019999999552965164,0.2819172441959381,-0.21787235140800476,9.7605619430542,0.03999999910593033,0.0,0.0,0.0,0.03999999910593033,0.0,0.0,0.0,0.03999999910593033
1778818962092079361,150778,1778818962079864999,imu_link,0.011437495239078999,0.012122757732868195,0.1395367830991745,-0.9900721907615662,0.0024999999441206455,0.0,0.0,0.0,0.0024999999441206455,0.0,0.0,0.0,0.0024999999441206455,0.0,0.0,0.0,0.019999999552965164,0.0,0.0,0.0,0.019999999552965164,0.0,0.0,0.0,0.019999999552965164,0.29209259152412415,-0.2106897532939911,9.753378868103027,0.03999999910593033,0.0,0.0,0.0,0.03999999910593033,0.0,0.0,0.0,0.03999999910593033
1778818962118141679,150779,1778818962088864999,imu_link,0.011531406082212925,0.013040988706052303,0.1395443081855774,-0.990058422088623,0.0024999999441206455,0.0,0.0,0.0,0.0024999999441206455,0.0,0.0,0.0,0.0024999999441206455,0.0,0.0,0.0,0.019999999552965164,0.0,0.0,0.0,0.019999999552965164,0.0,0.0,0.0,0.019999999552965164,0.304063618183136,-0.18614917993545532,9.734225273132324,0.03999999910593033,0.0,0.0,0.0,0.03999999910593033,0.0,0.0,0.0,0.03999999910593033
1778818962140909253,150780,1778818962136864999,imu_link,0.013149145990610123,0.009058917872607708,0.1394813060760498,-0.9900915622711182,0.0024999999441206455,0.0,0.0,0.0,0.0024999999441206455,0.0,0.0,0.0,0.0024999999441206455,0.0,0.0,0.0,0.019999999552965164,0.0,0.0,0.0,0.019999999552965164,0.0,0.0,0.0,0.019999999552965164,0.2783259451389313,-0.19033902883529663,9.75517463684082,0.03999999910593033,0.0,0.0,0.0,0.03999999910593033,0.0,0.0,0.0,0.03999999910593033
1778818962147880810,150781,1778818962139864999,imu_link,0.013107414357364178,0.009856796823441982,0.13949111104011536,-0.9900831580162048,0.0024999999441206455,0.0,0.0,0.0,0.0024999999441206455,0.0,0.0,0.0,0.0024999999441206455,0.0,0.0,0.0,0.019999999552965164,0.0,0.0,0.0,0.019999999552965164,0.0,0.0,0.0,0.019999999552965164,0.2825157940387726,-0.2148796021938324,9.731232643127441,0.03999999910593033,0.0,0.0,0.0,0.03999999910593033,0.0,0.0,0.0,0.03999999910593033
1778818962153532648,150782,1778818962144864999,imu_link,0.013107414357364178,0.009856796823441982,0.13949111104011536,-0.9900831580162048,0.0024999999441206455,0.0,0.0,0.0,0.0024999999441206455,0.0,0.0,0.0,0.0024999999441206455,0.0,0.0,0.0,0.019999999552965164,0.0,0.0,0.0,0.019999999552965164,0.0,0.0,0.0,0.019999999552965164,0.2825157940387726,-0.2148796021938324,9.731232643127441,0.03999999910593033,0.0,0.0,0.0,0.03999999910593033,0.0,0.0,0.0,0.03999999910593033
1778818962158998606,150783,1778818962149864999,imu_link,0.013011082075536251,0.010597550310194492,0.13950078189373016,-0.990075409412384,0.0024999999441206455,0.0,0.0,0.0,0.0024999999441206455,0.0,0.0,0.0,0.0024999999441206455,0.0,0.0,0.0,0.019999999552965164,0.0,0.0,0.0,0.019999999552965164,0.0,0.0,0.0,0.019999999552965164,0.30705636739730835,-0.2041056901216507,9.752182006835938,0.03999999910593033,0.0,0.0,0.0,0.03999999910593033,0.0,0.0,0.0,0.03999999910593033
1778818962164716915,150784,1778818962154864999,imu_link,0.012985275126993656,0.011097307316958904,0.13950678706169128,-0.9900693893432617,0.0024999999441206455,0.0,0.0,0.0,0.0024999999441206455,0.0,0.0,0.0,0.0024999999441206455,0.0,0.0,0.0,0.019999999552965164,0.0,0.0,0.0,0.019999999552965164,0.0,0.0,0.0,0.019999999552965164,0.29628247022628784,-0.2106897532939911,9.716268539428711,0.03999999910593033,0.0,0.0,0.0,0.03999999910593033,0.0,0.0,0.0,0.03999999910593033
1778818962170359736,150785,1778818962159864999,imu_link,0.012669072486460209,0.011485820636153221,0.139515221118927,-0.9900678992271423,0.0024999999441206455,0.0,0.0,0.0,0.0024999999441206455,0.0,0.0,0.0,0.0024999999441206455,0.0,0.0,0.0,0.019999999552965164,0.0,0.0,0.0,0.019999999552965164,0.0,0.0,0.0,0.019999999552965164,0.27653029561042786,-0.19213467836380005,9.758167266845703,0.03999999910593033,0.0,0.0,0.0,0.03999999910593033,0.0,0.0,0.0,0.03999999910593033
1778818962196431168,150786,1778818962168864999,imu_link,0.01220011617988348,0.011660028249025345,0.13952328264713287,-0.990070641040802,0.0024999999441206455,0.0,0.0,0.0,0.0024999999441206455,0.0,0.0,0.0,0.0024999999441206455,0.0,0.0,0.0,0.019999999552965164,0.0,0.0,0.0,0.019999999552965164,0.0,0.0,0.0,0.019999999552965164,0.2585737705230713,-0.2059013396501541,9.767744064331055,0.03999999910593033,0.0,0.0,0.0,0.03999999910593033,0.0,0.0,0.0,0.03999999910593033
1778818962202252666,150787,1778818962171864999,imu_link,0.012538459151983261,0.012522968463599682,0.13952775299549103,-0.9900552034378052,0.0024999999441206455,0.0,0.0,0.0,0.0024999999441206455,0.0,0.0,0.0,0.0024999999441206455,0.0,0.0,0.0,0.019999999552965164,0.0,0.0,0.0,0.019999999552965164,0.0,0.0,0.0,0.019999999552965164,0.29388824105262756,-0.2124854028224945,9.757569313049316,0.03999999910593033,0.0,0.0,0.0,0.03999999910593033,0.0,0.0,0.0,0.03999999910593033
1778818962227374758,150788,1778818962226864999,imu_link,0.015117773786187172,0.01682814210653305,0.13953544199466705,-0.9899543523788452,0.0024999999441206455,0.0,0.0,0.0,0.0024999999441206455,0.0,0.0,0.0,0.0024999999441206455,0.0,0.0,0.0,0.019999999552965164,0.0,0.0,0.0,0.019999999552965164,0.0,0.0,0.0,0.019999999552965164,0.284311443567276,-0.21128830313682556,9.715071678161621,0.03999999910593033,0.0,0.0,0.0,0.03999999910593033,0.0,0.0,0.0,0.03999999910593033
1778818962233166699,150789,1778818962228864999,imu_link,0.014700790867209435,0.0162822213023901,0.13953633606433868,-0.9899695515632629,0.0024999999441206455,0.0,0.0,0.0,0.0024999999441206455,0.0,0.0,0.0,0.0024999999441206455,0.0,0.0,0.0,0.019999999552965164,0.0,0.0,0.0,0.019999999552965164,0.0,0.0,0.0,0.019999999552965164,0.2687491476535797,-0.19153612852096558,9.783306121826172,0.03999999910593033,0.0,0.0,0.0,0.03999999910593033,0.0,0.0,0.0,0.03999999910593033
1778818962238793514,150790,1778818962233864999,imu_link,0.014700790867209435,0.0162822213023901,0.13953633606433868,-0.9899695515632629,0.0024999999441206455,0.0,0.0,0.0,0.0024999999441206455,0.0,0.0,0.0,0.0024999999441206455,0.0,0.0,0.0,0.019999999552965164,0.0,0.0,0.0,0.019999999552965164,0.0,0.0,0.0,0.019999999552965164,0.2687491476535797,-0.19153612852096558,9.783306121826172,0.03999999910593033,0.0,0.0,0.0,0.03999999910593033,0.0,0.0,0.0,0.03999999910593033
1778818962244353942,150791,1778818962238864999,imu_link,0.014305537566542625,0.01564806140959263,0.13953569531440735,-0.9899857640266418,0.0024999999441206455,0.0,0.0,0.0,0.0024999999441206455,0.0,0.0,0.0,0.0024999999441206455,0.0,0.0,0.0,0.019999999552965164,0.0,0.0,0.0,0.019999999552965164,0.0,0.0,0.0,0.019999999552965164,0.272938996553421,-0.20350714027881622,9.754575729370117,0.03999999910593033,0.0,0.0,0.0,0.03999999910593033,0.0,0.0,0.0,0.03999999910593033
1778818962252081030,150792,1778818962243864999,imu_link,0.013802953995764256,0.015102607198059559,0.13953790068626404,-0.9900010228157043,0.0024999999441206455,0.0,0.0,0.0,0.0024999999441206455,0.0,0.0,0.0,0.0024999999441206455,0.0,0.0,0.0,0.019999999552965164,0.0,0.0,0.0,0.019999999552965164,0.0,0.0,0.0,0.019999999552965164,0.2801215946674347,-0.19153612852096558,9.717466354370117,0.03999999910593033,0.0,0.0,0.0,0.03999999910593033,0.0,0.0,0.0,0.03999999910593033
1778818962258160134,150793,1778818962248864999,imu_link,0.013802953995764256,0.015102607198059559,0.13953790068626404,-0.9900010228157043,0.0024999999441206455,0.0,0.0,0.0,0.0024999999441206455,0.0,0.0,0.0,0.0024999999441206455,0.0,0.0,0.0,0.019999999552965164,0.0,0.0,0.0,0.019999999552965164,0.0,0.0,0.0,0.019999999552965164,0.2801215946674347,-0.19153612852096558,9.717466354370117,0.03999999910593033,0.0,0.0,0.0,0.03999999910593033,0.0,0.0,0.0,0.03999999910593033
1778818962263917118,150794,1778818962253864999,imu_link,0.01341924536973238,0.014461721293628216,0.13953691720962524,-0.9900158643722534,0.0024999999441206455,0.0,0.0,0.0,0.0024999999441206455,0.0,0.0,0.0,0.0024999999441206455,0.0,0.0,0.0,0.019999999552965164,0.0,0.0,0.0,0.019999999552965164,0.0,0.0,0.0,0.019999999552965164,0.2753331959247589,-0.20231004059314728,9.702502250671387,0.03999999910593033,0.0,0.0,0.0,0.03999999910593033,0.0,0.0,0.0,0.03999999910593033
1778818962288395608,150795,1778818962262864999,imu_link,0.012413423508405685,0.013860934413969517,0.13954636454582214,-0.9900364279747009,0.0024999999441206455,0.0,0.0,0.0,0.0024999999441206455,0.0,0.0,0.0,0.0024999999441206455,0.0,0.0,0.0,0.019999999552965164,0.0,0.0,0.0,0.019999999552965164,0.0,0.0,0.0,0.019999999552965164,0.2867056429386139,-0.18375498056411743,9.742605209350586,0.03999999910593033,0.0,0.0,0.0,0.03999999910593033,0.0,0.0,0.0,0.03999999910593033
1778818962312288091,150796,1778818962311864999,imu_link,0.01655171625316143,0.015347925946116447,0.13949641585350037,-0.9899609088897705,0.0024999999441206455,0.0,0.0,0.0,0.0024999999441206455,0.0,0.0,0.0,0.0024999999441206455,0.0,0.0,0.0,0.019999999552965164,0.0,0.0,0.0,0.019999999552965164,0.0,0.0,0.0,0.019999999552965164,0.30286651849746704,-0.2041056901216507,9.7605619430542,0.03999999910593033,0.0,0.0,0.0,0.03999999910593033,0.0,0.0,0.0,0.03999999910593033
1778818962321396089,150797,1778818962313864999,imu_link,0.015991894528269768,0.014945835806429386,0.1395004540681839,-0.9899756908416748,0.0024999999441206455,0.0,0.0,0.0,0.0024999999441206455,0.0,0.0,0.0,0.0024999999441206455,0.0,0.0,0.0,0.019999999552965164,0.0,0.0,0.0,0.019999999552965164,0.0,0.0,0.0,0.019999999552965164,0.2867056429386139,-0.22086510062217712,9.715670585632324,0.03999999910593033,0.0,0.0,0.0,0.03999999910593033,0.0,0.0,0.0,0.03999999910593033
1778818962326841516,150798,1778818962318864999,imu_link,0.015534540638327599,0.01474336814135313,0.13950543105602264,-0.9899852871894836,0.0024999999441206455,0.0,0.0,0.0,0.0024999999441206455,0.0,0.0,0.0,0.0024999999441206455,0.0,0.0,0.0,0.019999999552965164,0.0,0.0,0.0,0.019999999552965164,0.0,0.0,0.0,0.019999999552965164,0.2849099934101105,-0.19213467836380005,9.750985145568848,0.03999999910593033,0.0,0.0,0.0,0.03999999910593033,0.0,0.0,0.0,0.03999999910593033
1778818962332573200,150799,1778818962323864999,imu_link,0.015183043666183949,0.01438841875642538,0.13950659334659576,-0.9899958372116089,0.0024999999441206455,0.0,0.0,0.0,0.0024999999441206455,0.0,0.0,0.0,0.0024999999441206455,0.0,0.0,0.0,0.019999999552965164,0.0,0.0,0.0,0.019999999552965164,0.0,0.0,0.0,0.019999999552965164,0.2914940416812897,-0.23343466222286224,9.75637149810791,0.03999999910593033,0.0,0.0,0.0,0.03999999910593033,0.0,0.0,0.0,0.03999999910593033
1778818962337774858,150800,1778818962328864999,imu_link,0.015183043666183949,0.01438841875642538,0.13950659334659576,-0.9899958372116089,0.0024999999441206455,0.0,0.0,0.0,0.0024999999441206455,0.0,0.0,0.0,0.0024999999441206455,0.0,0.0,0.0,0.019999999552965164,0.0,0.0,0.0,0.019999999552965164,0.0,0.0,0.0,0.019999999552965164,0.2914940416812897,-0.23343466222286224,9.75637149810791,0.03999999910593033,0.0,0.0,0.0,0.03999999910593033,0.0,0.0,0.0,0.03999999910593033
1778818962343744787,150801,1778818962333864999,imu_link,0.014563003554940224,0.013972122222185135,0.13951128721237183,-0.9900104403495789,0.0024999999441206455,0.0,0.0,0.0,0.0024999999441206455,0.0,0.0,0.0,0.0024999999441206455,0.0,0.0,0.0,0.019999999552965164,0.0,0.0,0.0,0.019999999552965164,0.0,0.0,0.0,0.019999999552965164,0.28550854325294495,-0.21667525172233582,9.731232643127441,0.03999999910593033,0.0,0.0,0.0,0.03999999910593033,0.0,0.0,0.0,0.03999999910593033
1778818962352318623,150802,1778818962338864999,imu_link,0.013838591054081917,0.013817950151860714,0.1395208090543747,-0.9900215864181519,0.0024999999441206455,0.0,0.0,0.0,0.0024999999441206455,0.0,0.0,0.0,0.0024999999441206455,0.0,0.0,0.0,0.019999999552965164,0.0,0.0,0.0,0.019999999552965164,0.0,0.0,0.0,0.019999999552965164,0.30047231912612915,-0.2190694510936737,9.73781681060791,0.03999999910593033,0.0,0.0,0.0,0.03999999910593033,0.0,0.0,0.0,0.03999999910593033
1778818962376993764,150803,1778818962347864999,imu_link,0.012919805943965912,0.01372949406504631,0.13953407108783722,-0.9900334477424622,0.0024999999441206455,0.0,0.0,0.0,0.0024999999441206455,0.0,0.0,0.0,0.0024999999441206455,0.0,0.0,0.0,0.019999999552965164,0.0,0.0,0.0,0.019999999552965164,0.0,0.0,0.0,0.019999999552965164,0.2968810200691223,-0.19632454216480255,9.761159896850586,0.03999999910593033,0.0,0.0,0.0,0.03999999910593033,0.0,0.0,0.0,0.03999999910593033
1778818962401396361,150804,1778818962399864999,imu_link,0.015983697026968002,0.01017127837985754,0.13944663107395172,-0.9900439977645874,0.0024999999441206455,0.0,0.0,0.0,0.0024999999441206455,0.0,0.0,0.0,0.0024999999441206455,0.0,0.0,0.0,0.019999999552965164,0.0,0.0,0.0,0.019999999552965164,0.0,0.0,0.0,0.019999999552965164,0.2902969419956207,-0.2238578498363495,9.751583099365234,0.03999999910593033,0.0,0.0,0.0,0.03999999910593033,0.0,0.0,0.0,0.03999999910593033
1778818962406963476,150805,1778818962401864999,imu_link,0.015370319597423077,0.010485892184078693,0.13945868611335754,-0.9900487661361694,0.0024999999441206455,0.0,0.0,0.0,0.0024999999441206455,0.0,0.0,0.0,0.0024999999441206455,0.0,0.0,0.0,0.019999999552965164,0.0,0.0,0.0,0.019999999552965164,0.0,0.0,0.0,0.019999999552965164,0.26575639843940735,-0.21009118854999542,9.782708168029785,0.03999999910593033,0.0,0.0,0.0,0.03999999910593033,0.0,0.0,0.0,0.03999999910593033
1778818962413091030,150806,1778818962406864999,imu_link,0.01497867051512003,0.010797818191349506,0.13946786522865295,-0.9900500774383545,0.0024999999441206455,0.0,0.0,0.0,0.0024999999441206455,0.0,0.0,0.0,0.0024999999441206455,0.0,0.0,0.0,0.019999999552965164,0.0,0.0,0.0,0.019999999552965164,0.0,0.0,0.0,0.019999999552965164,0.2849099934101105,-0.19931729137897491,9.744998931884766,0.03999999910593033,0.0,0.0,0.0,0.03999999910593033,0.0,0.0,0.0,0.03999999910593033
1778818962421190620,150807,1778818962411864999,imu_link,0.01497867051512003,0.010797818191349506,0.13946786522865295,-0.9900500774383545,0.0024999999441206455,0.0,0.0,0.0,0.0024999999441206455,0.0,0.0,0.0,0.0024999999441206455,0.0,0.0,0.0,0.019999999552965164,0.0,0.0,0.0,0.019999999552965164,0.0,0.0,0.0,0.019999999552965164,0.2849099934101105,-0.19931729137897491,9.744998931884766,0.03999999910593033,0.0,0.0,0.0,0.03999999910593033,0.0,0.0,0.0,0.03999999910593033
1778818962427013407,150808,1778818962416864999,imu_link,0.014438284561038017,0.011314372532069683,0.13948163390159607,-0.9900503754615784,0.0024999999441206455,0.0,0.0,0.0,0.0024999999441206455,0.0,0.0,0.0,0.0024999999441206455,0.0,0.0,0.0,0.019999999552965164,0.0,0.0,0.0,0.019999999552965164,0.0,0.0,0.0,0.019999999552965164,0.2902969419956207,-0.20290859043598175,9.748590469360352,0.03999999910593033,0.0,0.0,0.0,0.03999999910593033,0.0,0.0,0.0,0.03999999910593033
1778818962432639636,150809,1778818962421864999,imu_link,0.014140634797513485,0.011716391891241074,0.13949066400527954,-0.9900487065315247,0.0024999999441206455,0.0,0.0,0.0,0.0024999999441206455,0.0,0.0,0.0,0.0024999999441206455,0.0,0.0,0.0,0.019999999552965164,0.0,0.0,0.0,0.019999999552965164,0.0,0.0,0.0,0.019999999552965164,0.2825157940387726,-0.2238578498363495,9.749189376831055,0.03999999910593033,0.0,0.0,0.0,0.03999999910593033,0.0,0.0,0.0,0.03999999910593033
1778818962438183030,150810,1778818962426864999,imu_link,0.01387298945337534,0.012408346869051456,0.13950282335281372,-0.9900423288345337,0.0024999999441206455,0.0,0.0,0.0,0.0024999999441206455,0.0,0.0,0.0,0.0024999999441206455,0.0,0.0,0.0,0.019999999552965164,0.0,0.0,0.0,0.019999999552965164,0.0,0.0,0.0,0.019999999552965164,0.31783026456832886,-0.21308395266532898,9.783905029296875,0.03999999910593033,0.0,0.0,0.0,0.03999999910593033,0.0,0.0,0.0,0.03999999910593033
1778818962463310203,150811,1778818962435864999,imu_link,0.013335451483726501,0.013159682974219322,0.13951943814754486,-0.990037739276886,0.0024999999441206455,0.0,0.0,0.0,0.0024999999441206455,0.0,0.0,0.0,0.0024999999441206455,0.0,0.0,0.0,0.019999999552965164,0.0,0.0,0.0,0.019999999552965164,0.0,0.0,0.0,0.019999999552965164,0.29388824105262756,-0.21787235140800476,9.735422134399414,0.03999999910593033,0.0,0.0,0.0,0.03999999910593033,0.0,0.0,0.0,0.03999999910593033
1778818962487470849,150812,1778818962488864999,imu_link,0.010163619183003902,0.009567899629473686,0.13952425122261047,-0.9901160001754761,0.0024999999441206455,0.0,0.0,0.0,0.0024999999441206455,0.0,0.0,0.0,0.0024999999441206455,0.0,0.0,0.0,0.019999999552965164,0.0,0.0,0.0,0.019999999552965164,0.0,0.0,0.0,0.019999999552965164,0.23762451112270355,-0.1867477297782898,9.709086418151855,0.03999999910593033,0.0,0.0,0.0,0.03999999910593033,0.0,0.0,0.0,0.03999999910593033
1778818962493706167,150813,1778818962490864999,imu_link,0.010670223273336887,0.010027545504271984,0.1395227164030075,-0.9901063442230225,0.0024999999441206455,0.0,0.0,0.0,0.0024999999441206455,0.0,0.0,0.0,0.0024999999441206455,0.0,0.0,0.0,0.019999999552965164,0.0,0.0,0.0,0.019999999552965164,0.0,0.0,0.0,0.019999999552965164,0.28550854325294495,-0.23104046285152435,9.747992515563965,0.03999999910593033,0.0,0.0,0.0,0.03999999910593033,0.0,0.0,0.0,0.03999999910593033
1778818962499288333,150814,1778818962495864999,imu_link,0.010670223273336887,0.010027545504271984,0.1395227164030075,-0.9901063442230225,0.0024999999441206455,0.0,0.0,0.0,0.0024999999441206455,0.0,0.0,0.0,0.0024999999441206455,0.0,0.0,0.0,0.019999999552965164,0.0,0.0,0.0,0.019999999552965164,0.0,0.0,0.0,0.019999999552965164,0.28550854325294495,-0.23104046285152435,9.747992515563965,0.03999999910593033,0.0,0.0,0.0,0.03999999910593033,0.0,0.0,0.0,0.03999999910593033
1778818962505025632,150815,1778818962500864999,imu_link,0.011178825050592422,0.010571623221039772,0.13952185213565826,-0.9900951385498047,0.0024999999441206455,0.0,0.0,0.0,0.0024999999441206455,0.0,0.0,0.0,0.0024999999441206455,0.0,0.0,0.0,0.019999999552965164,0.0,0.0,0.0,0.019999999552965164,0.0,0.0,0.0,0.019999999552965164,0.2861070930957794,-0.22325929999351501,9.746794700622559,0.03999999910593033,0.0,0.0,0.0,0.03999999910593033,0.0,0.0,0.0,0.03999999910593033
1778818962510970589,150816,1778818962505864999,imu_link,0.011653542518615723,0.011142860166728497,0.13952158391475677,-0.9900834560394287,0.0024999999441206455,0.0,0.0,0.0,0.0024999999441206455,0.0,0.0,0.0,0.0024999999441206455,0.0,0.0,0.0,0.019999999552965164,0.0,0.0,0.0,0.019999999552965164,0.0,0.0,0.0,0.019999999552965164,0.2825157940387726,-0.21667525172233582,9.734824180603027,0.03999999910593033,0.0,0.0,0.0,0.03999999910593033,0.0,0.0,0.0,0.03999999910593033
1778818962519725474,150817,1778818962510864999,imu_link,0.011653542518615723,0.011142860166728497,0.13952158391475677,-0.9900834560394287,0.0024999999441206455,0.0,0.0,0.0,0.0024999999441206455,0.0,0.0,0.0,0.0024999999441206455,0.0,0.0,0.0,0.019999999552965164,0.0,0.0,0.0,0.019999999552965164,0.0,0.0,0.0,0.019999999552965164,0.2825157940387726,-0.21667525172233582,9.734824180603027,0.03999999910593033,0.0,0.0,0.0,0.03999999910593033,0.0,0.0,0.0,0.03999999910593033
1778818962525616572,150818,1778818962515864999,imu_link,0.011878873221576214,0.011854940094053745,0.13952578604221344,-0.9900718927383423,0.0024999999441206455,0.0,0.0,0.0,0.0024999999441206455,0.0,0.0,0.0,0.0024999999441206455,0.0,0.0,0.0,0.019999999552965164,0.0,0.0,0.0,0.019999999552965164,0.0,0.0,0.0,0.019999999552965164,0.2974795699119568,-0.20350714027881622,9.764751434326172,0.03999999910593033,0.0,0.0,0.0,0.03999999910593033,0.0,0.0,0.0,0.03999999910593033
1778818962550180641,150819,1778818962524864999,imu_link,0.011891989037394524,0.013027620501816273,0.13953736424446106,-0.9900553226470947,0.0024999999441206455,0.0,0.0,0.0,0.0024999999441206455,0.0,0.0,0.0,0.0024999999441206455,0.0,0.0,0.0,0.019999999552965164,0.0,0.0,0.0,0.019999999552965164,0.0,0.0,0.0,0.019999999552965164,0.29448679089546204,-0.193331778049469,9.767744064331055,0.03999999910593033,0.0,0.0,0.0,0.03999999910593033,0.0,0.0,0.0,0.03999999910593033
1778818962556475755,150820,1778818962529864999,imu_link,0.012391751632094383,0.013030534610152245,0.13953010737895966,-0.9900501370429993,0.0024999999441206455,0.0,0.0,0.0,0.0024999999441206455,0.0,0.0,0.0,0.0024999999441206455,0.0,0.0,0.0,0.019999999552965164,0.0,0.0,0.0,0.019999999552965164,0.0,0.0,0.0,0.019999999552965164,0.2885012924671173,-0.22924481332302094,9.723451614379883,0.03999999910593033,0.0,0.0,0.0,0.03999999910593033,0.0,0.0,0.0,0.03999999910593033
1778818962578345482,150821,1778818962574864999,imu_link,0.016238754615187645,0.011916573159396648,0.13946105539798737,-0.9900183081626892,0.0024999999441206455,0.0,0.0,0.0,0.0024999999441206455,0.0,0.0,0.0,0.0024999999441206455,0.0,0.0,0.0,0.019999999552965164,0.0,0.0,0.0,0.019999999552965164,0.0,0.0,0.0,0.019999999552965164,0.28371289372444153,-0.2214636504650116,9.773131370544434,0.03999999910593033,0.0,0.0,0.0,0.03999999910593033,0.0,0.0,0.0,0.03999999910593033
1778818962586045950,150822,1778818962576864999,imu_link,0.015573815442621708,0.01207711547613144,0.13947269320487976,-0.9900254011154175,0.0024999999441206455,0.0,0.0,0.0,0.0024999999441206455,0.0,0.0,0.0,0.0024999999441206455,0.0,0.0,0.0,0.019999999552965164,0.0,0.0,0.0,0.019999999552965164,0.0,0.0,0.0,0.019999999552965164,0.2801215946674347,-0.21128830313682556,9.714472770690918,0.03999999910593033,0.0,0.0,0.0,0.03999999910593033,0.0,0.0,0.0,0.03999999910593033
1778818962592365477,150823,1778818962581864999,imu_link,0.015573815442621708,0.01207711547613144,0.13947269320487976,-0.9900254011154175,0.0024999999441206455,0.0,0.0,0.0,0.0024999999441206455,0.0,0.0,0.0,0.0024999999441206455,0.0,0.0,0.0,0.019999999552965164,0.0,0.0,0.0,0.019999999552965164,0.0,0.0,0.0,0.019999999552965164,0.2801215946674347,-0.21128830313682556,9.714472770690918,0.03999999910593033,0.0,0.0,0.0,0.03999999910593033,0.0,0.0,0.0,0.03999999910593033
1778818962597707077,150824,1778818962586864999,imu_link,0.014870492741465569,0.012325815856456757,0.13948602974414825,-0.990031361579895,0.0024999999441206455,0.0,0.0,0.0,0.0024999999441206455,0.0,0.0,0.0,0.0024999999441206455,0.0,0.0,0.0,0.019999999552965164,0.0,0.0,0.0,0.019999999552965164,0.0,0.0,0.0,0.019999999552965164,0.28969839215278625,-0.20231004059314728,9.77013874053955,0.03999999910593033,0.0,0.0,0.0,0.03999999910593033,0.0,0.0,0.0,0.03999999910593033
1778818962603343326,150825,1778818962591864999,imu_link,0.014400731772184372,0.01249740645289421,0.13949494063854218,-0.990034818649292,0.0024999999441206455,0.0,0.0,0.0,0.0024999999441206455,0.0,0.0,0.0,0.0024999999441206455,0.0,0.0,0.0,0.019999999552965164,0.0,0.0,0.0,0.019999999552965164,0.0,0.0,0.0,0.019999999552965164,0.2890998423099518,-0.19931729137897491,9.717466354370117,0.03999999910593033,0.0,0.0,0.0,0.03999999910593033,0.0,0.0,0.0,0.03999999910593033
1778818962609140925,150826,1778818962596864999,imu_link,0.013660146854817867,0.012554943561553955,0.1395062804222107,-0.990043044090271,0.0024999999441206455,0.0,0.0,0.0,0.0024999999441206455,0.0,0.0,0.0,0.0024999999441206455,0.0,0.0,0.0,0.019999999552965164,0.0,0.0,0.0,0.019999999552965164,0.0,0.0,0.0,0.019999999552965164,0.2801215946674347,-0.22505494952201843,9.774927139282227,0.03999999910593033,0.0,0.0,0.0,0.03999999910593033,0.0,0.0,0.0,0.03999999910593033
1778818962618146735,150827,1778818962601864999,imu_link,0.013660146854817867,0.012554943561553955,0.1395062804222107,-0.990043044090271,0.0024999999441206455,0.0,0.0,0.0,0.0024999999441206455,0.0,0.0,0.0,0.0024999999441206455,0.0,0.0,0.0,0.019999999552965164,0.0,0.0,0.0,0.019999999552965164,0.0,0.0,0.0,0.019999999552965164,0.2801215946674347,-0.22505494952201843,9.774927139282227,0.03999999910593033,0.0,0.0,0.0,0.03999999910593033,0.0,0.0,0.0,0.03999999910593033
1778818962641349751,150828,1778818962610864999,imu_link,0.01276424340903759,0.013345192186534405,0.13952785730361938,-0.9900416135787964,0.0024999999441206455,0.0,0.0,0.0,0.0024999999441206455,0.0,0.0,0.0,0.0024999999441206455,0.0,0.0,0.0,0.019999999552965164,0.0,0.0,0.0,0.019999999552965164,0.0,0.0,0.0,0.019999999552965164,0.29807811975479126,-0.20769698917865753,9.738415718078613,0.03999999910593033,0.0,0.0,0.0,0.03999999910593033,0.0,0.0,0.0,0.03999999910593033
1778818962665921380,150829,1778818962661864999,imu_link,0.00917766336351633,0.01637399010360241,0.13961274921894073,-0.9900238513946533,0.0024999999441206455,0.0,0.0,0.0,0.0024999999441206455,0.0,0.0,0.0,0.0024999999441206455,0.0,0.0,0.0,0.019999999552965164,0.0,0.0,0.0,0.019999999552965164,0.0,0.0,0.0,0.019999999552965164,0.2998737692832947,-0.19692309200763702,9.725247383117676,0.03999999910593033,0.0,0.0,0.0,0.03999999910593033,0.0,0.0,0.0,0.03999999910593033
1778818962671597314,150830,1778818962664864999,imu_link,0.009709388948976994,0.015942353755235672,0.1396005004644394,-0.990027666091919,0.0024999999441206455,0.0,0.0,0.0,0.0024999999441206455,0.0,0.0,0.0,0.0024999999441206455,0.0,0.0,0.0,0.019999999552965164,0.0,0.0,0.0,0.019999999552965164,0.0,0.0,0.0,0.019999999552965164,0.2908954918384552,-0.21607670187950134,9.744400978088379,0.03999999910593033,0.0,0.0,0.0,0.03999999910593033,0.0,0.0,0.0,0.03999999910593033
1778818962677036031,150831,1778818962669864999,imu_link,0.009709388948976994,0.015942353755235672,0.1396005004644394,-0.990027666091919,0.0024999999441206455,0.0,0.0,0.0,0.0024999999441206455,0.0,0.0,0.0,0.0024999999441206455,0.0,0.0,0.0,0.019999999552965164,0.0,0.0,0.0,0.019999999552965164,0.0,0.0,0.0,0.019999999552965164,0.2908954918384552,-0.21607670187950134,9.744400978088379,0.03999999910593033,0.0,0.0,0.0,0.03999999910593033,0.0,0.0,0.0,0.03999999910593033
1778818962685334501,150832,1778818962674864999,imu_link,0.010299477726221085,0.015488126315176487,0.13958698511123657,-0.990030825138092,0.0024999999441206455,0.0,0.0,0.0,0.0024999999441206455,0.0,0.0,0.0,0.0024999999441206455,0.0,0.0,0.0,0.019999999552965164,0.0,0.0,0.0,0.019999999552965164,0.0,0.0,0.0,0.019999999552965164,0.3010708689689636,-0.20290859043598175,9.749189376831055,0.03999999910593033,0.0,0.0,0.0,0.03999999910593033,0.0,0.0,0.0,0.03999999910593033
1778818962690844788,150833,1778818962679864999,imu_link,0.010619493201375008,0.015103965997695923,0.13957850635051727,-0.9900345206260681,0.0024999999441206455,0.0,0.0,0.0,0.0024999999441206455,0.0,0.0,0.0,0.0024999999441206455,0.0,0.0,0.0,0.019999999552965164,0.0,0.0,0.0,0.019999999552965164,0.0,0.0,0.0,0.019999999552965164,0.28072014451026917,-0.20889408886432648,9.764152526855469,0.03999999910593033,0.0,0.0,0.0,0.03999999910593033,0.0,0.0,0.0,0.03999999910593033
1778818962696581486,150834,1778818962684864999,imu_link,0.011094830930233002,0.014532594010233879,0.1395658403635025,-0.990039587020874,0.0024999999441206455,0.0,0.0,0.0,0.0024999999441206455,0.0,0.0,0.0,0.0024999999441206455,0.0,0.0,0.0,0.019999999552965164,0.0,0.0,0.0,0.019999999552965164,0.0,0.0,0.0,0.019999999552965164,0.2867056429386139,-0.20290859043598175,9.77672290802002,0.03999999910593033,0.0,0.0,0.0,0.03999999910593033,0.0,0.0,0.0,0.03999999910593033
1778818962702555705,150835,1778818962689864999,imu_link,0.011094830930233002,0.014532594010233879,0.1395658403635025,-0.990039587020874,0.0024999999441206455,0.0,0.0,0.0,0.0024999999441206455,0.0,0.0,0.0,0.0024999999441206455,0.0,0.0,0.0,0.019999999552965164,0.0,0.0,0.0,0.019999999552965164,0.0,0.0,0.0,0.019999999552965164,0.2867056429386139,-0.20290859043598175,9.77672290802002,0.03999999910593033,0.0,0.0,0.0,0.03999999910593033,0.0,0.0,0.0,0.03999999910593033
1778818962728416502,150836,1778818962698864999,imu_link,0.011840437538921833,0.013360381126403809,0.1395435631275177,-0.990050733089447,0.0024999999441206455,0.0,0.0,0.0,0.0024999999441206455,0.0,0.0,0.0,0.0024999999441206455,0.0,0.0,0.0,0.019999999552965164,0.0,0.0,0.0,0.019999999552965164,0.0,0.0,0.0,0.019999999552965164,0.28131869435310364,-0.2041056901216507,9.733028411865234,0.03999999910593033,0.0,0.0,0.0,0.03999999910593033,0.0,0.0,0.0,0.03999999910593033
1778818962753947255,150837,1778818962751864999,imu_link,0.016733543947339058,0.013396757654845715,0.13946941494941711,-0.9899899959564209,0.0024999999441206455,0.0,0.0,0.0,0.0024999999441206455,0.0,0.0,0.0,0.0024999999441206455,0.0,0.0,0.0,0.019999999552965164,0.0,0.0,0.0,0.019999999552965164,0.0,0.0,0.0,0.019999999552965164,0.295683890581131,-0.22505494952201843,9.767744064331055,0.03999999910593033,0.0,0.0,0.0,0.03999999910593033,0.0,0.0,0.0,0.03999999910593033
1778818962760075527,150838,1778818962754864999,imu_link,0.01605910062789917,0.0132731469348073,0.13947807252407074,-0.9900014996528625,0.0024999999441206455,0.0,0.0,0.0,0.0024999999441206455,0.0,0.0,0.0,0.0024999999441206455,0.0,0.0,0.0,0.019999999552965164,0.0,0.0,0.0,0.019999999552965164,0.0,0.0,0.0,0.019999999552965164,0.28072014451026917,-0.2172738015651703,9.726444244384766,0.03999999910593033,0.0,0.0,0.0,0.03999999910593033,0.0,0.0,0.0,0.03999999910593033
1778818962765026781,150839,1778818962759864999,imu_link,0.01605910062789917,0.0132731469348073,0.13947807252407074,-0.9900014996528625,0.0024999999441206455,0.0,0.0,0.0,0.0024999999441206455,0.0,0.0,0.0,0.0024999999441206455,0.0,0.0,0.0,0.019999999552965164,0.0,0.0,0.0,0.019999999552965164,0.0,0.0,0.0,0.019999999552965164,0.28072014451026917,-0.2172738015651703,9.726444244384766,0.03999999910593033,0.0,0.0,0.0,0.03999999910593033,0.0,0.0,0.0,0.03999999910593033
1778818962770887166,150840,1778818962764864999,imu_link,0.015314065851271152,0.013292747549712658,0.1394897699356079,-0.9900113940238953,0.0024999999441206455,0.0,0.0,0.0,0.0024999999441206455,0.0,0.0,0.0,0.0024999999441206455,0.0,0.0,0.0,0.019999999552965164,0.0,0.0,0.0,0.019999999552965164,0.0,0.0,0.0,0.019999999552965164,0.2926911413669586,-0.20470423996448517,9.767146110534668,0.03999999910593033,0.0,0.0,0.0,0.03999999910593033,0.0,0.0,0.0,0.03999999910593033
1778818962776309721,150841,1778818962769864999,imu_link,0.014600261114537716,0.013501415960490704,0.13950344920158386,-0.9900174736976624,0.0024999999441206455,0.0,0.0,0.0,0.0024999999441206455,0.0,0.0,0.0,0.0024999999441206455,0.0,0.0,0.0,0.019999999552965164,0.0,0.0,0.0,0.019999999552965164,0.0,0.0,0.0,0.019999999552965164,0.30226796865463257,-0.22086510062217712,9.695319175720215,0.03999999910593033,0.0,0.0,0.0,0.03999999910593033,0.0,0.0,0.0,0.03999999910593033
1778818962786316494,150842,1778818962774864999,imu_link,0.014600261114537716,0.013501415960490704,0.13950344920158386,-0.9900174736976624,0.0024999999441206455,0.0,0.0,0.0,0.0024999999441206455,0.0,0.0,0.0,0.0024999999441206455,0.0,0.0,0.0,0.019999999552965164,0.0,0.0,0.0,0.019999999552965164,0.0,0.0,0.0,0.019999999552965164,0.30226796865463257,-0.22086510062217712,9.695319175720215,0.03999999910593033,0.0,0.0,0.0,0.03999999910593033,0.0,0.0,0.0,0.03999999910593033
1778818962792211505,150843,1778818962779864999,imu_link,0.013860197737812996,0.013606111519038677,0.13951614499092102,-0.990024983882904,0.0024999999441206455,0.0,0.0,0.0,0.0024999999441206455,0.0,0.0,0.0,0.0024999999441206455,0.0,0.0,0.0,0.019999999552965164,0.0,0.0,0.0,0.019999999552965164,0.0,0.0,0.0,0.019999999552965164,0.30047231912612915,-0.2238578498363495,9.745597839355469,0.03999999910593033,0.0,0.0,0.0,0.03999999910593033,0.0,0.0,0.0,0.03999999910593033
1778818962818453785,150844,1778818962788864999,imu_link,0.01284812018275261,0.013329236768186092,0.13952866196632385,-0.9900406002998352,0.0024999999441206455,0.0,0.0,0.0,0.0024999999441206455,0.0,0.0,0.0,0.0024999999441206455,0.0,0.0,0.0,0.019999999552965164,0.0,0.0,0.0,0.019999999552965164,0.0,0.0,0.0,0.019999999552965164,0.2735375463962555,-0.19393032789230347,9.742006301879883,0.03999999910593033,0.0,0.0,0.0,0.03999999910593033,0.0,0.0,0.0,0.03999999910593033
1778818962824629148,150845,1778818962793864999,imu_link,0.01284812018275261,0.013329236768186092,0.13952866196632385,-0.9900406002998352,0.0024999999441206455,0.0,0.0,0.0,0.0024999999441206455,0.0,0.0,0.0,0.0024999999441206455,0.0,0.0,0.0,0.019999999552965164,0.0,0.0,0.0,0.019999999552965164,0.0,0.0,0.0,0.019999999552965164,0.2735375463962555,-0.19393032789230347,9.742006301879883,0.03999999910593033,0.0,0.0,0.0,0.03999999910593033,0.0,0.0,0.0,0.03999999910593033
1778818962848175057,150846,1778818962847864999,imu_link,0.01233027596026659,0.007960871793329716,0.13947609066963196,-0.9901124238967896,0.0024999999441206455,0.0,0.0,0.0,0.0024999999441206455,0.0,0.0,0.0,0.0024999999441206455,0.0,0.0,0.0,0.019999999552965164,0.0,0.0,0.0,0.019999999552965164,0.0,0.0,0.0,0.019999999552965164,0.2753331959247589,-0.2124854028224945,9.742006301879883,0.03999999910593033,0.0,0.0,0.0,0.03999999910593033,0.0,0.0,0.0,0.03999999910593033
1778818962855690771,150847,1778818962849864999,imu_link,0.012561870738863945,0.008606833405792713,0.13948100805282593,-0.9901034235954285,0.0024999999441206455,0.0,0.0,0.0,0.0024999999441206455,0.0,0.0,0.0,0.0024999999441206455,0.0,0.0,0.0,0.019999999552965164,0.0,0.0,0.0,0.019999999552965164,0.0,0.0,0.0,0.019999999552965164,0.2849099934101105,-0.23702596127986908,9.765350341796875,0.03999999910593033,0.0,0.0,0.0,0.03999999910593033,0.0,0.0,0.0,0.03999999910593033
1778818962862409295,150848,1778818962854864999,imu_link,0.012561870738863945,0.008606833405792713,0.13948100805282593,-0.9901034235954285,0.0024999999441206455,0.0,0.0,0.0,0.0024999999441206455,0.0,0.0,0.0,0.0024999999441206455,0.0,0.0,0.0,0.019999999552965164,0.0,0.0,0.0,0.019999999552965164,0.0,0.0,0.0,0.019999999552965164,0.2849099934101105,-0.23702596127986908,9.765350341796875,0.03999999910593033,0.0,0.0,0.0,0.03999999910593033,0.0,0.0,0.0,0.03999999910593033
1778818962866283278,150849,1778818962859864999,imu_link,0.012820662930607796,0.009304974228143692,0.1394861489534378,-0.9900929927825928,0.0024999999441206455,0.0,0.0,0.0,0.0024999999441206455,0.0,0.0,0.0,0.0024999999441206455,0.0,0.0,0.0,0.019999999552965164,0.0,0.0,0.0,0.019999999552965164,0.0,0.0,0.0,0.019999999552965164,0.2950853407382965,-0.23942016065120697,9.722254753112793,0.03999999910593033,0.0,0.0,0.0,0.03999999910593033,0.0,0.0,0.0,0.03999999910593033
1778818962872035722,150850,1778818962864864999,imu_link,0.012955108657479286,0.010035600513219833,0.1394929438829422,-0.9900830984115601,0.0024999999441206455,0.0,0.0,0.0,0.0024999999441206455,0.0,0.0,0.0,0.0024999999441206455,0.0,0.0,0.0,0.019999999552965164,0.0,0.0,0.0,0.019999999552965164,0.0,0.0,0.0,0.019999999552965164,0.2825157940387726,-0.2256534993648529,9.770736694335938,0.03999999910593033,0.0,0.0,0.0,0.03999999910593033,0.0,0.0,0.0,0.03999999910593033
1778818962877373959,150851,1778818962869864999,imu_link,0.012955108657479286,0.010035600513219833,0.1394929438829422,-0.9900830984115601,0.0024999999441206455,0.0,0.0,0.0,0.0024999999441206455,0.0,0.0,0.0,0.0024999999441206455,0.0,0.0,0.0,0.019999999552965164,0.0,0.0,0.0,0.019999999552965164,0.0,0.0,0.0,0.019999999552965164,0.2825157940387726,-0.2256534993648529,9.770736694335938,0.03999999910593033,0.0,0.0,0.0,0.03999999910593033,0.0,0.0,0.0,0.03999999910593033
1778818962886486690,150852,1778818962874864999,imu_link,0.012882410548627377,0.01077942829579115,0.13950227200984955,-0.9900749325752258,0.0024999999441206455,0.0,0.0,0.0,0.0024999999441206455,0.0,0.0,0.0,0.0024999999441206455,0.0,0.0,0.0,0.019999999552965164,0.0,0.0,0.0,0.019999999552965164,0.0,0.0,0.0,0.019999999552965164,0.284311443567276,-0.20889408886432648,9.725247383117676,0.03999999910593033,0.0,0.0,0.0,0.03999999910593033,0.0,0.0,0.0,0.03999999910593033
1778818962909745348,150853,1778818962883864999,imu_link,0.012694642879068851,0.011938245967030525,0.13951756060123444,-0.9900619387626648,0.0024999999441206455,0.0,0.0,0.0,0.0024999999441206455,0.0,0.0,0.0,0.0024999999441206455,0.0,0.0,0.0,0.019999999552965164,0.0,0.0,0.0,0.019999999552965164,0.0,0.0,0.0,0.019999999552965164,0.29448679089546204,-0.20350714027881622,9.744998931884766,0.03999999910593033,0.0,0.0,0.0,0.03999999910593033,0.0,0.0,0.0,0.03999999910593033
1778818962934048031,150854,1778818962931864999,imu_link,0.012804004363715649,0.016237791627645493,0.13956166803836823,-0.9899930953979492,0.0024999999441206455,0.0,0.0,0.0,0.0024999999441206455,0.0,0.0,0.0,0.0024999999441206455,0.0,0.0,0.0,0.019999999552965164,0.0,0.0,0.0,0.019999999552965164,0.0,0.0,0.0,0.019999999552965164,0.31543606519699097,-0.20709843933582306,9.75517463684082,0.03999999910593033,0.0,0.0,0.0,0.03999999910593033,0.0,0.0,0.0,0.03999999910593033
1778818962939523895,150855,1778818962933864999,imu_link,0.01270726602524519,0.015557803213596344,0.13955628871917725,-0.9900060296058655,0.0024999999441206455,0.0,0.0,0.0,0.0024999999441206455,0.0,0.0,0.0,0.0024999999441206455,0.0,0.0,0.0,0.019999999552965164,0.0,0.0,0.0,0.019999999552965164,0.0,0.0,0.0,0.019999999552965164,0.2651578485965729,-0.20350714027881622,9.773131370544434,0.03999999910593033,0.0,0.0,0.0,0.03999999910593033,0.0,0.0,0.0,0.03999999910593033
1778818962945496976,150856,1778818962938864999,imu_link,0.01270726602524519,0.015557803213596344,0.13955628871917725,-0.9900060296058655,0.0024999999441206455,0.0,0.0,0.0,0.0024999999441206455,0.0,0.0,0.0,0.0024999999441206455,0.0,0.0,0.0,0.019999999552965164,0.0,0.0,0.0,0.019999999552965164,0.0,0.0,0.0,0.019999999552965164,0.2651578485965729,-0.20350714027881622,9.773131370544434,0.03999999910593033,0.0,0.0,0.0,0.03999999910593033,0.0,0.0,0.0,0.03999999910593033
1778818962952420811,150857,1778818962943864999,imu_link,0.012585463933646679,0.014822704717516899,0.13955068588256836,-0.9900196194648743,0.0024999999441206455,0.0,0.0,0.0,0.0024999999441206455,0.0,0.0,0.0,0.0024999999441206455,0.0,0.0,0.0,0.019999999552965164,0.0,0.0,0.0,0.019999999552965164,0.0,0.0,0.0,0.019999999552965164,0.2819172441959381,-0.20111294090747833,9.713874816894531,0.03999999910593033,0.0,0.0,0.0,0.03999999910593033,0.0,0.0,0.0,0.03999999910593033
1778818962958010327,150858,1778818962948864999,imu_link,0.0125685203820467,0.014080258086323738,0.13954322040081024,-0.9900317192077637,0.0024999999441206455,0.0,0.0,0.0,0.0024999999441206455,0.0,0.0,0.0,0.0024999999441206455,0.0,0.0,0.0,0.019999999552965164,0.0,0.0,0.0,0.019999999552965164,0.0,0.0,0.0,0.019999999552965164,0.26396071910858154,-0.20949263870716095,9.752182006835938,0.03999999910593033,0.0,0.0,0.0,0.03999999910593033,0.0,0.0,0.0,0.03999999910593033
1778818962965425927,150859,1778818962953864999,imu_link,0.0125685203820467,0.014080258086323738,0.13954322040081024,-0.9900317192077637,0.0024999999441206455,0.0,0.0,0.0,0.0024999999441206455,0.0,0.0,0.0,0.0024999999441206455,0.0,0.0,0.0,0.019999999552965164,0.0,0.0,0.0,0.019999999552965164,0.0,0.0,0.0,0.019999999552965164,0.26396071910858154,-0.20949263870716095,9.752182006835938,0.03999999910593033,0.0,0.0,0.0,0.03999999910593033,0.0,0.0,0.0,0.03999999910593033
1778818962970342723,150860,1778818962958864999,imu_link,0.012671845965087414,0.013340176083147526,0.13953381776809692,-0.9900420308113098,0.0024999999441206455,0.0,0.0,0.0,0.0024999999441206455,0.0,0.0,0.0,0.0024999999441206455,0.0,0.0,0.0,0.019999999552965164,0.0,0.0,0.0,0.019999999552965164,0.0,0.0,0.0,0.019999999552965164,0.28550854325294495,-0.21009118854999542,9.739612579345703,0.03999999910593033,0.0,0.0,0.0,0.03999999910593033,0.0,0.0,0.0,0.03999999910593033
1778818962996062300,150861,1778818962967864999,imu_link,0.012185719795525074,0.013818996027112007,0.1395464986562729,-0.9900397658348083,0.0024999999441206455,0.0,0.0,0.0,0.0024999999441206455,0.0,0.0,0.0,0.0024999999441206455,0.0,0.0,0.0,0.019999999552965164,0.0,0.0,0.0,0.019999999552965164,0.0,0.0,0.0,0.019999999552965164,0.30047231912612915,-0.19572599232196808,9.769539833068848,0.03999999910593033,0.0,0.0,0.0,0.03999999910593033,0.0,0.0,0.0,0.03999999910593033
1778818963021469763,150862,1778818963020864999,imu_link,0.01201903447508812,0.009030002169311047,0.13949888944625854,-0.9901037812232971,0.0024999999441206455,0.0,0.0,0.0,0.0024999999441206455,0.0,0.0,0.0,0.0024999999441206455,0.0,0.0,0.0,0.019999999552965164,0.0,0.0,0.0,0.019999999552965164,0.0,0.0,0.0,0.019999999552965164,0.27653029561042786,-0.1999158412218094,9.734824180603027,0.03999999910593033,0.0,0.0,0.0,0.03999999910593033,0.0,0.0,0.0,0.03999999910593033
1778818963027515307,150863,1778818963022864999,imu_link,0.012063730508089066,0.009716629050672054,0.13950569927692413,-0.9900957942008972,0.0024999999441206455,0.0,0.0,0.0,0.0024999999441206455,0.0,0.0,0.0,0.0024999999441206455,0.0,0.0,0.0,0.019999999552965164,0.0,0.0,0.0,0.019999999552965164,0.0,0.0,0.0,0.019999999552965164,0.2908954918384552,-0.20111294090747833,9.741408348083496,0.03999999910593033,0.0,0.0,0.0,0.03999999910593033,0.0,0.0,0.0,0.03999999910593033
1778818963032507424,150864,1778818963027864999,imu_link,0.012063730508089066,0.009716629050672054,0.13950569927692413,-0.9900957942008972,0.0024999999441206455,0.0,0.0,0.0,0.0024999999441206455,0.0,0.0,0.0,0.0024999999441206455,0.0,0.0,0.0,0.019999999552965164,0.0,0.0,0.0,0.019999999552965164,0.0,0.0,0.0,0.019999999552965164,0.2908954918384552,-0.20111294090747833,9.741408348083496,0.03999999910593033,0.0,0.0,0.0,0.03999999910593033,0.0,0.0,0.0,0.03999999910593033
1778818963038139192,150865,1778818963032864999,imu_link,0.012073872610926628,0.010462910868227482,0.13951344788074493,-0.9900869727134705,0.0024999999441206455,0.0,0.0,0.0,0.0024999999441206455,0.0,0.0,0.0,0.0024999999441206455,0.0,0.0,0.0,0.019999999552965164,0.0,0.0,0.0,0.019999999552965164,0.0,0.0,0.0,0.019999999552965164,0.304063618183136,-0.19632454216480255,9.764152526855469,0.03999999910593033,0.0,0.0,0.0,0.03999999910593033,0.0,0.0,0.0,0.03999999910593033
1778818963043788495,150866,1778818963037864999,imu_link,0.012167773209512234,0.011199325323104858,0.13952001929283142,-0.9900768995285034,0.0024999999441206455,0.0,0.0,0.0,0.0024999999441206455,0.0,0.0,0.0,0.0024999999441206455,0.0,0.0,0.0,0.019999999552965164,0.0,0.0,0.0,0.019999999552965164,0.0,0.0,0.0,0.019999999552965164,0.28131869435310364,-0.2041056901216507,9.747992515563965,0.03999999910593033,0.0,0.0,0.0,0.03999999910593033,0.0,0.0,0.0,0.03999999910593033
1778818963051862434,150867,1778818963042864999,imu_link,0.012167773209512234,0.011199325323104858,0.13952001929283142,-0.9900768995285034,0.0024999999441206455,0.0,0.0,0.0,0.0024999999441206455,0.0,0.0,0.0,0.0024999999441206455,0.0,0.0,0.0,0.019999999552965164,0.0,0.0,0.0,0.019999999552965164,0.0,0.0,0.0,0.019999999552965164,0.28131869435310364,-0.2041056901216507,9.747992515563965,0.03999999910593033,0.0,0.0,0.0,0.03999999910593033,0.0,0.0,0.0,0.03999999910593033
1778818963058406598,150868,1778818963047864999,imu_link,0.012213426642119884,0.011944996193051338,0.13952720165252686,-0.9900665879249573,0.0024999999441206455,0.0,0.0,0.0,0.0024999999441206455,0.0,0.0,0.0,0.0024999999441206455,0.0,0.0,0.0,0.019999999552965164,0.0,0.0,0.0,0.019999999552965164,0.0,0.0,0.0,0.019999999552965164,0.3064578175544739,-0.1999158412218094,9.743204116821289,0.03999999910593033,0.0,0.0,0.0,0.03999999910593033,0.0,0.0,0.0,0.03999999910593033
1778818963084585920,150869,1778818963056864999,imu_link,0.01331461314111948,0.01234971359372139,0.1395164132118225,-0.990048885345459,0.0024999999441206455,0.0,0.0,0.0,0.0024999999441206455,0.0,0.0,0.0,0.0024999999441206455,0.0,0.0,0.0,0.019999999552965164,0.0,0.0,0.0,0.019999999552965164,0.0,0.0,0.0,0.019999999552965164,0.2849099934101105,-0.24181437492370605,9.769539833068848,0.03999999910593033,0.0,0.0,0.0,0.03999999910593033,0.0,0.0,0.0,0.03999999910593033
1778818963091040589,150870,1778818963061864999,imu_link,0.01331461314111948,0.01234971359372139,0.1395164132118225,-0.990048885345459,0.0024999999441206455,0.0,0.0,0.0,0.0024999999441206455,0.0,0.0,0.0,0.0024999999441206455,0.0,0.0,0.0,0.019999999552965164,0.0,0.0,0.0,0.019999999552965164,0.0,0.0,0.0,0.019999999552965164,0.2849099934101105,-0.24181437492370605,9.769539833068848,0.03999999910593033,0.0,0.0,0.0,0.03999999910593033,0.0,0.0,0.0,0.03999999910593033
1778818963114549570,150871,1778818963107864999,imu_link,0.014243668876588345,0.01685246266424656,0.1395534723997116,-0.9899643063545227,0.0024999999441206455,0.0,0.0,0.0,0.0024999999441206455,0.0,0.0,0.0,0.0024999999441206455,0.0,0.0,0.0,0.019999999552965164,0.0,0.0,0.0,0.019999999552965164,0.0,0.0,0.0,0.019999999552965164,0.27892449498176575,-0.2238578498363495,9.749787330627441,0.03999999910593033,0.0,0.0,0.0,0.03999999910593033,0.0,0.0,0.0,0.03999999910593033
1778818963122380983,150872,1778818963109864999,imu_link,0.01381292287260294,0.016316646710038185,0.1395551711320877,-0.989979088306427,0.0024999999441206455,0.0,0.0,0.0,0.0024999999441206455,0.0,0.0,0.0,0.0024999999441206455,0.0,0.0,0.0,0.019999999552965164,0.0,0.0,0.0,0.019999999552965164,0.0,0.0,0.0,0.019999999552965164,0.3100491166114807,-0.19692309200763702,9.739013671875,0.03999999910593033,0.0,0.0,0.0,0.03999999910593033,0.0,0.0,0.0,0.03999999910593033
1778818963127322887,150873,1778818963114864999,imu_link,0.01381292287260294,0.016316646710038185,0.1395551711320877,-0.989979088306427,0.0024999999441206455,0.0,0.0,0.0,0.0024999999441206455,0.0,0.0,0.0,0.0024999999441206455,0.0,0.0,0.0,0.019999999552965164,0.0,0.0,0.0,0.019999999552965164,0.0,0.0,0.0,0.019999999552965164,0.3100491166114807,-0.19692309200763702,9.739013671875,0.03999999910593033,0.0,0.0,0.0,0.03999999910593033,0.0,0.0,0.0,0.03999999910593033
1778818963132798064,150874,1778818963119864999,imu_link,0.013539720326662064,0.015624248422682285,0.13955217599868774,-0.9899944067001343,0.0024999999441206455,0.0,0.0,0.0,0.0024999999441206455,0.0,0.0,0.0,0.0024999999441206455,0.0,0.0,0.0,0.019999999552965164,0.0,0.0,0.0,0.019999999552965164,0.0,0.0,0.0,0.019999999552965164,0.28311434388160706,-0.2059013396501541,9.766547203063965,0.03999999910593033,0.0,0.0,0.0,0.03999999910593033,0.0,0.0,0.0,0.03999999910593033
1778818963138771297,150875,1778818963124864999,imu_link,0.013370458967983723,0.01515341829508543,0.1395498365163803,-0.9900045394897461,0.0024999999441206455,0.0,0.0,0.0,0.0024999999441206455,0.0,0.0,0.0,0.0024999999441206455,0.0,0.0,0.0,0.019999999552965164,0.0,0.0,0.0,0.019999999552965164,0.0,0.0,0.0,0.019999999552965164,0.272938996553421,-0.20530278980731964,9.747393608093262,0.03999999910593033,0.0,0.0,0.0,0.03999999910593033,0.0,0.0,0.0,0.03999999910593033
1778818963144725314,150876,1778818963129864999,imu_link,0.013265103101730347,0.014665158465504646,0.13954615592956543,-0.9900137186050415,0.0024999999441206455,0.0,0.0,0.0,0.0024999999441206455,0.0,0.0,0.0,0.0024999999441206455,0.0,0.0,0.0,0.019999999552965164,0.0,0.0,0.0,0.019999999552965164,0.0,0.0,0.0,0.019999999552965164,0.2687491476535797,-0.21308395266532898,9.771934509277344,0.03999999910593033,0.0,0.0,0.0,0.03999999910593033,0.0,0.0,0.0,0.03999999910593033
1778818963152607607,150877,1778818963134864999,imu_link,0.012965553440153599,0.014264537952840328,0.13954660296440125,-0.9900234937667847,0.0024999999441206455,0.0,0.0,0.0,0.0024999999441206455,0.0,0.0,0.0,0.0024999999441206455,0.0,0.0,0.0,0.019999999552965164,0.0,0.0,0.0,0.019999999552965164,0.0,0.0,0.0,0.019999999552965164,0.2861070930957794,-0.19812019169330597,9.769539833068848,0.03999999910593033,0.0,0.0,0.0,0.03999999910593033,0.0,0.0,0.0,0.03999999910593033
1778818963272213709,150878,1778818963193864999,imu_link,0.015097062103450298,0.009072651155292988,0.13945600390434265,-0.9900672435760498,0.0024999999441206455,0.0,0.0,0.0,0.0024999999441206455,0.0,0.0,0.0,0.0024999999441206455,0.0,0.0,0.0,0.019999999552965164,0.0,0.0,0.0,0.019999999552965164,0.0,0.0,0.0,0.019999999552965164,0.29388824105262756,-0.21368250250816345,9.730035781860352,0.03999999910593033,0.0,0.0,0.0,0.03999999910593033,0.0,0.0,0.0,0.03999999910593033
1778818963272230703,150879,1778818963196864999,imu_link,0.014735599979758263,0.009659331291913986,0.1394680142402649,-0.9900655150413513,0.0024999999441206455,0.0,0.0,0.0,0.0024999999441206455,0.0,0.0,0.0,0.0024999999441206455,0.0,0.0,0.0,0.019999999552965164,0.0,0.0,0.0,0.019999999552965164,0.0,0.0,0.0,0.019999999552965164,0.2968810200691223,-0.19871874153614044,9.717466354370117,0.03999999910593033,0.0,0.0,0.0,0.03999999910593033,0.0,0.0,0.0,0.03999999910593033
1778818963272239781,150880,1778818963201864999,imu_link,0.014735599979758263,0.009659331291913986,0.1394680142402649,-0.9900655150413513,0.0024999999441206455,0.0,0.0,0.0,0.0024999999441206455,0.0,0.0,0.0,0.0024999999441206455,0.0,0.0,0.0,0.019999999552965164,0.0,0.0,0.0,0.019999999552965164,0.0,0.0,0.0,0.019999999552965164,0.2968810200691223,-0.19871874153614044,9.717466354370117,0.03999999910593033,0.0,0.0,0.0,0.03999999910593033,0.0,0.0,0.0,0.03999999910593033
1778818963272247501,150881,1778818963206864999,imu_link,0.014279710128903389,0.010251440107822418,0.13948111236095428,-0.9900643825531006,0.0024999999441206455,0.0,0.0,0.0,0.0024999999441206455,0.0,0.0,0.0,0.0024999999441206455,0.0,0.0,0.0,0.019999999552965164,0.0,0.0,0.0,0.019999999552965164,0.0,0.0,0.0,0.019999999552965164,0.28072014451026917,-0.20290859043598175,9.744400978088379,0.03999999910593033,0.0,0.0,0.0,0.03999999910593033,0.0,0.0,0.0,0.03999999910593033
1778818963272269059,150882,1778818963211864999,imu_link,0.01393834687769413,0.010911233723163605,0.13949358463287354,-0.9900603890419006,0.0024999999441206455,0.0,0.0,0.0,0.0024999999441206455,0.0,0.0,0.0,0.0024999999441206455,0.0,0.0,0.0,0.019999999552965164,0.0,0.0,0.0,0.019999999552965164,0.0,0.0,0.0,0.019999999552965164,0.2885012924671173,-0.20889408886432648,9.692925453186035,0.03999999910593033,0.0,0.0,0.0,0.03999999910593033,0.0,0.0,0.0,0.03999999910593033
1778818963272287862,150883,1778818963216864999,imu_link,0.01393834687769413,0.010911233723163605,0.13949358463287354,-0.9900603890419006,0.0024999999441206455,0.0,0.0,0.0,0.0024999999441206455,0.0,0.0,0.0,0.0024999999441206455,0.0,0.0,0.0,0.019999999552965164,0.0,0.0,0.0,0.019999999552965164,0.0,0.0,0.0,0.019999999552965164,0.2885012924671173,-0.20889408886432648,9.692925453186035,0.03999999910593033,0.0,0.0,0.0,0.03999999910593033,0.0,0.0,0.0,0.03999999910593033
1778818963272307487,150884,1778818963221864999,imu_link,0.013463846407830715,0.011485425755381584,0.13950665295124054,-0.9900586605072021,0.0024999999441206455,0.0,0.0,0.0,0.0024999999441206455,0.0,0.0,0.0,0.0024999999441206455,0.0,0.0,0.0,0.019999999552965164,0.0,0.0,0.0,0.019999999552965164,0.0,0.0,0.0,0.019999999552965164,0.2885012924671173,-0.19572599232196808,9.744400978088379,0.03999999910593033,0.0,0.0,0.0,0.03999999910593033,0.0,0.0,0.0,0.03999999910593033
1778818963276085705,150885,1778818963230864999,imu_link,0.013250594027340412,0.012633691541850567,0.13952286541461945,-0.9900453686714172,0.0024999999441206455,0.0,0.0,0.0,0.0024999999441206455,0.0,0.0,0.0,0.0024999999441206455,0.0,0.0,0.0,0.019999999552965164,0.0,0.0,0.0,0.019999999552965164,0.0,0.0,0.0,0.019999999552965164,0.304063618183136,-0.21308395266532898,9.734824180603027,0.03999999910593033,0.0,0.0,0.0,0.03999999910593033,0.0,0.0,0.0,0.03999999910593033
1778818963276108650,150886,1778818963235864999,imu_link,0.013250594027340412,0.012633691541850567,0.13952286541461945,-0.9900453686714172,0.0024999999441206455,0.0,0.0,0.0,0.0024999999441206455,0.0,0.0,0.0,0.0024999999441206455,0.0,0.0,0.0,0.019999999552965164,0.0,0.0,0.0,0.019999999552965164,0.0,0.0,0.0,0.019999999552965164,0.304063618183136,-0.21308395266532898,9.734824180603027,0.03999999910593033,0.0,0.0,0.0,0.03999999910593033,0.0,0.0,0.0,0.03999999910593033
1778818963285397072,150887,1778818963284864999,imu_link,0.010249657556414604,0.016645124182105064,0.13960976898670197,-0.9900093674659729,0.0024999999441206455,0.0,0.0,0.0,0.0024999999441206455,0.0,0.0,0.0,0.0024999999441206455,0.0,0.0,0.0,0.019999999552965164,0.0,0.0,0.0,0.019999999552965164,0.0,0.0,0.0,0.019999999552965164,0.29448679089546204,-0.20769698917865753,9.756970405578613,0.03999999910593033,0.0,0.0,0.0,0.03999999910593033,0.0,0.0,0.0,0.03999999910593033
1778818963290601729,150888,1778818963287864999,imu_link,0.01068576704710722,0.01611465960741043,0.13959774374961853,-0.9900150895118713,0.0024999999441206455,0.0,0.0,0.0,0.0024999999441206455,0.0,0.0,0.0,0.0024999999441206455,0.0,0.0,0.0,0.019999999552965164,0.0,0.0,0.0,0.019999999552965164,0.0,0.0,0.0,0.019999999552965164,0.2849099934101105,-0.2238578498363495,9.765350341796875,0.03999999910593033,0.0,0.0,0.0,0.03999999910593033,0.0,0.0,0.0,0.03999999910593033
1778818963296234784,150889,1778818963292864999,imu_link,0.01068576704710722,0.01611465960741043,0.13959774374961853,-0.9900150895118713,0.0024999999441206455,0.0,0.0,0.0,0.0024999999441206455,0.0,0.0,0.0,0.0024999999441206455,0.0,0.0,0.0,0.019999999552965164,0.0,0.0,0.0,0.019999999552965164,0.0,0.0,0.0,0.019999999552965164,0.2849099934101105,-0.2238578498363495,9.765350341796875,0.03999999910593033,0.0,0.0,0.0,0.03999999910593033,0.0,0.0,0.0,0.03999999910593033
1778818963301618456,150890,1778818963297864999,imu_link,0.011187042109668255,0.01556064747273922,0.13958434760570526,-0.9900203347206116,0.0024999999441206455,0.0,0.0,0.0,0.0024999999441206455,0.0,0.0,0.0,0.0024999999441206455,0.0,0.0,0.0,0.019999999552965164,0.0,0.0,0.0,0.019999999552965164,0.0,0.0,0.0,0.019999999552965164,0.2849099934101105,-0.23104046285152435,9.783306121826172,0.03999999910593033,0.0,0.0,0.0,0.03999999910593033,0.0,0.0,0.0,0.03999999910593033
1778818963307772215,150891,1778818963302864999,imu_link,0.011362805031239986,0.015092558227479458,0.13957718014717102,-0.9900266528129578,0.0024999999441206455,0.0,0.0,0.0,0.0024999999441206455,0.0,0.0,0.0,0.0024999999441206455,0.0,0.0,0.0,0.019999999552965164,0.0,0.0,0.0,0.019999999552965164,0.0,0.0,0.0,0.019999999552965164,0.28371289372444153,-0.19931729137897491,9.743204116821289,0.03999999910593033,0.0,0.0,0.0,0.03999999910593033,0.0,0.0,0.0,0.03999999910593033
1778818963313618169,150892,1778818963307864999,imu_link,0.011465772055089474,0.014603108167648315,0.13957098126411438,-0.9900336265563965,0.0024999999441206455,0.0,0.0,0.0,0.0024999999441206455,0.0,0.0,0.0,0.0024999999441206455,0.0,0.0,0.0,0.019999999552965164,0.0,0.0,0.0,0.019999999552965164,0.0,0.0,0.0,0.019999999552965164,0.272938996553421,-0.19692309200763702,9.768940925598145,0.03999999910593033,0.0,0.0,0.0,0.03999999910593033,0.0,0.0,0.0,0.03999999910593033
1778818963325033726,150893,1778818963312864999,imu_link,0.011755305342376232,0.014194991439580917,0.13956251740455627,-0.9900374412536621,0.0024999999441206455,0.0,0.0,0.0,0.0024999999441206455,0.0,0.0,0.0,0.0024999999441206455,0.0,0.0,0.0,0.019999999552965164,0.0,0.0,0.0,0.019999999552965164,0.0,0.0,0.0,0.019999999552965164,0.29867666959762573,-0.19572599232196808,9.75278091430664,0.03999999910593033,0.0,0.0,0.0,0.03999999910593033,0.0,0.0,0.0,0.03999999910593033
1778818963347748949,150894,1778818963321864999,imu_link,0.012896886095404625,0.01391964964568615,0.1395418345928192,-0.9900299906730652,0.0024999999441206455,0.0,0.0,0.0,0.0024999999441206455,0.0,0.0,0.0,0.0024999999441206455,0.0,0.0,0.0,0.019999999552965164,0.0,0.0,0.0,0.019999999552965164,0.0,0.0,0.0,0.019999999552965164,0.30286651849746704,-0.2214636504650116,9.744400978088379,0.03999999910593033,0.0,0.0,0.0,0.03999999910593033,0.0,0.0,0.0,0.03999999910593033
1778818963355593033,150895,1778818963326864999,imu_link,0.012896886095404625,0.01391964964568615,0.1395418345928192,-0.9900299906730652,0.0024999999441206455,0.0,0.0,0.0,0.0024999999441206455,0.0,0.0,0.0,0.0024999999441206455,0.0,0.0,0.0,0.019999999552965164,0.0,0.0,0.0,0.019999999552965164,0.0,0.0,0.0,0.019999999552965164,0.30286651849746704,-0.2214636504650116,9.744400978088379,0.03999999910593033,0.0,0.0,0.0,0.03999999910593033,0.0,0.0,0.0,0.03999999910593033
1778818963361423948,150896,1778818963331864999,imu_link,0.01296362467110157,0.013176399283111095,0.1395326852798462,-0.9900404810905457,0.0024999999441206455,0.0,0.0,0.0,0.0024999999441206455,0.0,0.0,0.0,0.0024999999441206455,0.0,0.0,0.0,0.019999999552965164,0.0,0.0,0.0,0.019999999552965164,0.0,0.0,0.0,0.019999999552965164,0.2861070930957794,-0.21607670187950134,9.771934509277344,0.03999999910593033,0.0,0.0,0.0,0.03999999910593033,0.0,0.0,0.0,0.03999999910593033
1778818963369497469,150897,1778818963336864999,imu_link,0.012580584734678268,0.013497947715222836,0.13954193890094757,-0.9900400042533875,0.0024999999441206455,0.0,0.0,0.0,0.0024999999441206455,0.0,0.0,0.0,0.0024999999441206455,0.0,0.0,0.0,0.019999999552965164,0.0,0.0,0.0,0.019999999552965164,0.0,0.0,0.0,0.019999999552965164,0.29867666959762573,-0.19692309200763702,9.699509620666504,0.03999999910593033,0.0,0.0,0.0,0.03999999910593033,0.0,0.0,0.0,0.03999999910593033
1778818963396261015,150898,1778818963386864999,imu_link,0.013809858821332455,0.008818665519356728,0.13947220146656036,-0.9900860786437988,0.0024999999441206455,0.0,0.0,0.0,0.0024999999441206455,0.0,0.0,0.0,0.0024999999441206455,0.0,0.0,0.0,0.019999999552965164,0.0,0.0,0.0,0.019999999552965164,0.0,0.0,0.0,0.019999999552965164,0.2555810213088989,-0.22266075015068054,9.745597839355469,0.03999999910593033,0.0,0.0,0.0,0.03999999910593033,0.0,0.0,0.0,0.03999999910593033
1778818963402158096,150899,1778818963389864999,imu_link,0.013630717061460018,0.009478654712438583,0.1394822895526886,-0.9900810122489929,0.0024999999441206455,0.0,0.0,0.0,0.0024999999441206455,0.0,0.0,0.0,0.0024999999441206455,0.0,0.0,0.0,0.019999999552965164,0.0,0.0,0.0,0.019999999552965164,0.0,0.0,0.0,0.019999999552965164,0.2711433470249176,-0.2148796021938324,9.726444244384766,0.03999999910593033,0.0,0.0,0.0,0.03999999910593033,0.0,0.0,0.0,0.03999999910593033
1778818963407646521,150900,1778818963394864999,imu_link,0.013630717061460018,0.009478654712438583,0.1394822895526886,-0.9900810122489929,0.0024999999441206455,0.0,0.0,0.0,0.0024999999441206455,0.0,0.0,0.0,0.0024999999441206455,0.0,0.0,0.0,0.019999999552965164,0.0,0.0,0.0,0.019999999552965164,0.0,0.0,0.0,0.019999999552965164,0.2711433470249176,-0.2148796021938324,9.726444244384766,0.03999999910593033,0.0,0.0,0.0,0.03999999910593033,0.0,0.0,0.0,0.03999999910593033
1778818963413327737,150901,1778818963399864999,imu_link,0.013302932493388653,0.010150321759283543,0.1394941210746765,-0.9900771379470825,0.0024999999441206455,0.0,0.0,0.0,0.0024999999441206455,0.0,0.0,0.0,0.0024999999441206455,0.0,0.0,0.0,0.019999999552965164,0.0,0.0,0.0,0.019999999552965164,0.0,0.0,0.0,0.019999999552965164,0.28371289372444153,-0.19393032789230347,9.732429504394531,0.03999999910593033,0.0,0.0,0.0,0.03999999910593033,0.0,0.0,0.0,0.03999999910593033
1778818963420996632,150902,1778818963404864999,imu_link,0.013113360852003098,0.010865858756005764,0.13950474560260773,-0.9900705814361572,0.0024999999441206455,0.0,0.0,0.0,0.0024999999441206455,0.0,0.0,0.0,0.0024999999441206455,0.0,0.0,0.0,0.019999999552965164,0.0,0.0,0.0,0.019999999552965164,0.0,0.0,0.0,0.019999999552965164,0.28730419278144836,-0.2059013396501541,9.742006301879883,0.03999999910593033,0.0,0.0,0.0,0.03999999910593033,0.0,0.0,0.0,0.03999999910593033
1778818963426396500,150903,1778818963409864999,imu_link,0.013113360852003098,0.010865858756005764,0.13950474560260773,-0.9900705814361572,0.0024999999441206455,0.0,0.0,0.0,0.0024999999441206455,0.0,0.0,0.0,0.0024999999441206455,0.0,0.0,0.0,0.019999999552965164,0.0,0.0,0.0,0.019999999552965164,0.0,0.0,0.0,0.019999999552965164,0.28730419278144836,-0.2059013396501541,9.742006301879883,0.03999999910593033,0.0,0.0,0.0,0.03999999910593033,0.0,0.0,0.0,0.03999999910593033
1778818963432607210,150904,1778818963414864999,imu_link,0.01318021584302187,0.011607512831687927,0.13951237499713898,-0.9900602102279663,0.0024999999441206455,0.0,0.0,0.0,0.0024999999441206455,0.0,0.0,0.0,0.0024999999441206455,0.0,0.0,0.0,0.019999999552965164,0.0,0.0,0.0,0.019999999552965164,0.0,0.0,0.0,0.019999999552965164,0.29867666959762573,-0.22026655077934265,9.715670585632324,0.03999999910593033,0.0,0.0,0.0,0.03999999910593033,0.0,0.0,0.0,0.03999999910593033
1778818963459578654,150905,1778818963423864999,imu_link,0.013531314209103584,0.01253510918468237,0.13951793313026428,-0.9900434017181396,0.0024999999441206455,0.0,0.0,0.0,0.0024999999441206455,0.0,0.0,0.0,0.0024999999441206455,0.0,0.0,0.0,0.019999999552965164,0.0,0.0,0.0,0.019999999552965164,0.0,0.0,0.0,0.019999999552965164,0.28550854325294495,-0.23283611238002777,9.706093788146973,0.03999999910593033,0.0,0.0,0.0,0.03999999910593033,0.0,0.0,0.0,0.03999999910593033
1778818963483052643,150906,1778818963511980697,imu_link,0.008138823322951794,0.012841114774346352,0.1395965814590454,-0.9900873303413391,0.0024999999441206455,0.0,0.0,0.0,0.0024999999441206455,0.0,0.0,0.0,0.0024999999441206455,0.0,0.0,0.0,0.019999999552965164,0.0,0.0,0.0,0.019999999552965164,0.0,0.0,0.0,0.019999999552965164,0.2759317457675934,-0.2064998894929886,9.70010757446289,0.03999999910593033,0.0,0.0,0.0,0.03999999910593033,0.0,0.0,0.0,0.03999999910593033
1778818963489230025,150907,1778818963514980697,imu_link,0.008821188472211361,0.012920629233121872,0.13958759605884552,-0.990081787109375,0.0024999999441206455,0.0,0.0,0.0,0.0024999999441206455,0.0,0.0,0.0,0.0024999999441206455,0.0,0.0,0.0,0.019999999552965164,0.0,0.0,0.0,0.019999999552965164,0.0,0.0,0.0,0.019999999552965164,0.29209259152412415,-0.21009118854999542,9.703699111938477,0.03999999910593033,0.0,0.0,0.0,0.03999999910593033,0.0,0.0,0.0,0.03999999910593033
1778818963494629888,150908,1778818963519980697,imu_link,0.009318330325186253,0.012974289245903492,0.13958097994327545,-0.9900774955749512,0.0024999999441206455,0.0,0.0,0.0,0.0024999999441206455,0.0,0.0,0.0,0.0024999999441206455,0.0,0.0,0.0,0.019999999552965164,0.0,0.0,0.0,0.019999999552965164,0.0,0.0,0.0,0.019999999552965164,0.29448679089546204,-0.21667525172233582,9.761159896850586,0.03999999910593033,0.0,0.0,0.0,0.03999999910593033,0.0,0.0,0.0,0.03999999910593033
1778818963500323257,150909,1778818963524980697,imu_link,0.009318330325186253,0.012974289245903492,0.13958097994327545,-0.9900774955749512,0.0024999999441206455,0.0,0.0,0.0,0.0024999999441206455,0.0,0.0,0.0,0.0024999999441206455,0.0,0.0,0.0,0.019999999552965164,0.0,0.0,0.0,0.019999999552965164,0.0,0.0,0.0,0.019999999552965164,0.29448679089546204,-0.21667525172233582,9.761159896850586,0.03999999910593033,0.0,0.0,0.0,0.03999999910593033,0.0,0.0,0.0,0.03999999910593033
1778818963506693660,150910,1778818963529980697,imu_link,0.010047908872365952,0.013134559616446495,0.13957181572914124,-0.9900696277618408,0.0024999999441206455,0.0,0.0,0.0,0.0024999999441206455,0.0,0.0,0.0,0.0024999999441206455,0.0,0.0,0.0,0.019999999552965164,0.0,0.0,0.0,0.019999999552965164,0.0,0.0,0.0,0.019999999552965164,0.30226796865463257,-0.21547815203666687,9.745597839355469,0.03999999910593033,0.0,0.0,0.0,0.03999999910593033,0.0,0.0,0.0,0.03999999910593033
1778818963512107247,150911,1778818963534980697,imu_link,0.01078696921467781,0.013172096572816372,0.13956141471862793,-0.9900627136230469,0.0024999999441206455,0.0,0.0,0.0,0.0024999999441206455,0.0,0.0,0.0,0.0024999999441206455,0.0,0.0,0.0,0.019999999552965164,0.0,0.0,0.0,0.019999999552965164,0.0,0.0,0.0,0.019999999552965164,0.28790274262428284,-0.19632454216480255,9.729436874389648,0.03999999910593033,0.0,0.0,0.0,0.03999999910593033,0.0,0.0,0.0,0.03999999910593033
1778818963520546549,150912,1778818963539980697,imu_link,0.01078696921467781,0.013172096572816372,0.13956141471862793,-0.9900627136230469,0.0024999999441206455,0.0,0.0,0.0,0.0024999999441206455,0.0,0.0,0.0,0.0024999999441206455,0.0,0.0,0.0,0.019999999552965164,0.0,0.0,0.0,0.019999999552965164,0.0,0.0,0.0,0.019999999552965164,0.28790274262428284,-0.19632454216480255,9.729436874389648,0.03999999910593033,0.0,0.0,0.0,0.03999999910593033,0.0,0.0,0.0,0.03999999910593033
1778818963543294505,150913,1778818963548980697,imu_link,0.012125743553042412,0.012737570330500603,0.13953781127929688,-0.9900562167167664,0.0024999999441206455,0.0,0.0,0.0,0.0024999999441206455,0.0,0.0,0.0,0.0024999999441206455,0.0,0.0,0.0,0.019999999552965164,0.0,0.0,0.0,0.019999999552965164,0.0,0.0,0.0,0.019999999552965164,0.28072014451026917,-0.19812019169330597,9.781511306762695,0.03999999910593033,0.0,0.0,0.0,0.03999999910593033,0.0,0.0,0.0,0.03999999910593033
1778818963550538531,150914,1778818963553980697,imu_link,0.012125743553042412,0.012737570330500603,0.13953781127929688,-0.9900562167167664,0.0024999999441206455,0.0,0.0,0.0,0.0024999999441206455,0.0,0.0,0.0,0.0024999999441206455,0.0,0.0,0.0,0.019999999552965164,0.0,0.0,0.0,0.019999999552965164,0.0,0.0,0.0,0.019999999552965164,0.28072014451026917,-0.19812019169330597,9.781511306762695,0.03999999910593033,0.0,0.0,0.0,0.03999999910593033,0.0,0.0,0.0,0.03999999910593033
1778818963572490395,150915,1778818963601980697,imu_link,0.01158385630697012,0.017603328451514244,0.13959366083145142,-0.9899802207946777,0.0024999999441206455,0.0,0.0,0.0,0.0024999999441206455,0.0,0.0,0.0,0.0024999999441206455,0.0,0.0,0.0,0.019999999552965164,0.0,0.0,0.0,0.019999999552965164,0.0,0.0,0.0,0.019999999552965164,0.2926911413669586,-0.19572599232196808,9.737217903137207,0.03999999910593033,0.0,0.0,0.0,0.03999999910593033,0.0,0.0,0.0,0.03999999910593033
1778818963578528367,150916,1778818963604980697,imu_link,0.011792751029133797,0.016952404752373695,0.1395837813615799,-0.9899905323982239,0.0024999999441206455,0.0,0.0,0.0,0.0024999999441206455,0.0,0.0,0.0,0.0024999999441206455,0.0,0.0,0.0,0.019999999552965164,0.0,0.0,0.0,0.019999999552965164,0.0,0.0,0.0,0.019999999552965164,0.27892449498176575,-0.2190694510936737,9.70549488067627,0.03999999910593033,0.0,0.0,0.0,0.03999999910593033,0.0,0.0,0.0,0.03999999910593033
1778818963588052307,150917,1778818963609980697,imu_link,0.011927721090614796,0.016470730304718018,0.13957680761814117,-0.9899981021881104,0.0024999999441206455,0.0,0.0,0.0,0.0024999999441206455,0.0,0.0,0.0,0.0024999999441206455,0.0,0.0,0.0,0.019999999552965164,0.0,0.0,0.0,0.019999999552965164,0.0,0.0,0.0,0.019999999552965164,0.2968810200691223,-0.20889408886432648,9.742006301879883,0.03999999910593033,0.0,0.0,0.0,0.03999999910593033,0.0,0.0,0.0,0.03999999910593033
