%time,field.header.seq,field.header.stamp,field.header.frame_id,field.orientation.x,field.orientation.y,field.orientation.z,field.orientation.w,field.orientation_covariance0,field.orientation_covariance1,field.orientation_covariance2,field.orientation_covariance3,field.orientation_covariance4,field.orientation_covariance5,field.orientation_covariance6,field.orientation_covariance7,field.orientation_covariance8,field.angular_velocity.x,field.angular_velocity.y,field.angular_velocity.z,field.angular_velocity_covariance0,field.angular_velocity_covariance1,field.angular_velocity_covariance2,field.angular_velocity_covariance3,field.angular_velocity_covariance4,field.angular_velocity_covariance5,field.angular_velocity_covariance6,field.angular_velocity_covariance7,field.angular_velocity_covariance8,field.linear_acceleration.x,field.linear_acceleration.y,field.linear_acceleration.z,field.linear_acceleration_covariance0,field.linear_acceleration_covariance1,field.linear_acceleration_covariance2,field.linear_acceleration_covariance3,field.linear_acceleration_covariance4,field.linear_acceleration_covariance5,field.linear_acceleration_covariance6,field.linear_acceleration_covariance7,field.linear_acceleration_covariance8
1778815289546095841,275932,1778815289519510704,imu_link,-0.007556899916380644,0.010618115775287151,0.8785645961761475,-0.47743654251098633,0.0024999999441206455,0.0,0.0,0.0,0.0024999999441206455,0.0,0.0,0.0,0.0024999999441206455,0.0,0.0,0.0,0.019999999552965164,0.0,0.0,0.0,0.019999999552965164,0.0,0.0,0.0,0.019999999552965164,-0.08499415963888168,0.2412158101797104,9.784503936767578,0.03999999910593033,0.0,0.0,0.0,0.03999999910593033,0.0,0.0,0.0,0.03999999910593033
1778815289551961064,275933,1778815289522510704,imu_link,-0.008155785501003265,0.010280617512762547,0.8785678744316101,-0.4774281978607178,0.0024999999441206455,0.0,0.0,0.0,0.0024999999441206455,0.0,0.0,0.0,0.0024999999441206455,0.0,0.0,0.0,0.019999999552965164,0.0,0.0,0.0,0.019999999552965164,0.0,0.0,0.0,0.019999999552965164,-0.08619125932455063,0.25079262256622314,9.72285270690918,0.03999999910593033,0.0,0.0,0.0,0.03999999910593033,0.0,0.0,0.0,0.03999999910593033
1778815289557699326,275934,1778815289527510704,imu_link,-0.008590412326157093,0.01003353763371706,0.8785699605941772,-0.47742196917533875,0.0024999999441206455,0.0,0.0,0.0,0.0024999999441206455,0.0,0.0,0.0,0.0024999999441206455,0.0,0.0,0.0,0.019999999552965164,0.0,0.0,0.0,0.019999999552965164,0.0,0.0,0.0,0.019999999552965164,-0.07541735470294952,0.2519897222518921,9.767146110534668,0.03999999910593033,0.0,0.0,0.0,0.03999999910593033,0.0,0.0,0.0,0.03999999910593033
1778815289565765420,275935,1778815289532510704,imu_link,-0.008590412326157093,0.01003353763371706,0.8785699605941772,-0.47742196917533875,0.0024999999441206455,0.0,0.0,0.0,0.0024999999441206455,0.0,0.0,0.0,0.0024999999441206455,0.0,0.0,0.0,0.019999999552965164,0.0,0.0,0.0,0.019999999552965164,0.0,0.0,0.0,0.019999999552965164,-0.07541735470294952,0.2519897222518921,9.767146110534668,0.03999999910593033,0.0,0.0,0.0,0.03999999910593033,0.0,0.0,0.0,0.03999999910593033
1778815289571289015,275936,1778815289537510704,imu_link,-0.00932383257895708,0.009894084185361862,0.8785695433616638,-0.47741198539733887,0.0024999999441206455,0.0,0.0,0.0,0.0024999999441206455,0.0,0.0,0.0,0.0024999999441206455,0.0,0.0,0.0,0.019999999552965164,0.0,0.0,0.0,0.019999999552965164,0.0,0.0,0.0,0.019999999552965164,-0.07422025501728058,0.25737667083740234,9.70310115814209,0.03999999910593033,0.0,0.0,0.0,0.03999999910593033,0.0,0.0,0.0,0.03999999910593033
1778815289576861413,275937,1778815289542510704,imu_link,-0.009587316773831844,0.00946932565420866,0.8785740733146667,-0.47740694880485535,0.0024999999441206455,0.0,0.0,0.0,0.0024999999441206455,0.0,0.0,0.0,0.0024999999441206455,0.0,0.0,0.0,0.019999999552965164,0.0,0.0,0.0,0.019999999552965164,0.0,0.0,0.0,0.019999999552965164,-0.09636661410331726,0.2388216108083725,9.709684371948242,0.03999999910593033,0.0,0.0,0.0,0.03999999910593033,0.0,0.0,0.0,0.03999999910593033
1778815289583588705,275938,1778815289547510704,imu_link,-0.009149779565632343,0.00886970292776823,0.8785833120346069,-0.4774101674556732,0.0024999999441206455,0.0,0.0,0.0,0.0024999999441206455,0.0,0.0,0.0,0.0024999999441206455,0.0,0.0,0.0,0.019999999552965164,0.0,0.0,0.0,0.019999999552965164,0.0,0.0,0.0,0.019999999552965164,-0.07481880486011505,0.24061726033687592,9.785700798034668,0.03999999910593033,0.0,0.0,0.0,0.03999999910593033,0.0,0.0,0.0,0.03999999910593033
1778815289607064367,275939,1778815289556510704,imu_link,-0.009916995652019978,0.008353144861757755,0.8785862922668457,-0.47739866375923157,0.0024999999441206455,0.0,0.0,0.0,0.0024999999441206455,0.0,0.0,0.0,0.0024999999441206455,0.0,0.0,0.0,0.019999999552965164,0.0,0.0,0.0,0.019999999552965164,0.0,0.0,0.0,0.019999999552965164,-0.08798690885305405,0.23702596127986908,9.794678688049316,0.03999999910593033,0.0,0.0,0.0,0.03999999910593033,0.0,0.0,0.0,0.03999999910593033
1778815289630610586,275940,1778815289612510704,imu_link,-0.0047817653976380825,0.007551995106041431,0.8786083459854126,-0.4774504005908966,0.0024999999441206455,0.0,0.0,0.0,0.0024999999441206455,0.0,0.0,0.0,0.0024999999441206455,0.0,0.0,0.0,0.019999999552965164,0.0,0.0,0.0,0.019999999552965164,0.0,0.0,0.0,0.019999999552965164,-0.08978256583213806,0.2346317619085312,9.806051254272461,0.03999999910593033,0.0,0.0,0.0,0.03999999910593033,0.0,0.0,0.0,0.03999999910593033
1778815289636541324,275941,1778815289615510704,imu_link,-0.005420439410954714,0.007808849215507507,0.8786054849624634,-0.47744476795196533,0.0024999999441206455,0.0,0.0,0.0,0.0024999999441206455,0.0,0.0,0.0,0.0024999999441206455,0.0,0.0,0.0,0.019999999552965164,0.0,0.0,0.0,0.019999999552965164,0.0,0.0,0.0,0.019999999552965164,-0.08858545869588852,0.2663549482822418,9.70549488067627,0.03999999910593033,0.0,0.0,0.0,0.03999999910593033,0.0,0.0,0.0,0.03999999910593033
1778815289642163048,275942,1778815289620510704,imu_link,-0.005420439410954714,0.007808849215507507,0.8786054849624634,-0.47744476795196533,0.0024999999441206455,0.0,0.0,0.0,0.0024999999441206455,0.0,0.0,0.0,0.0024999999441206455,0.0,0.0,0.0,0.019999999552965164,0.0,0.0,0.0,0.019999999552965164,0.0,0.0,0.0,0.019999999552965164,-0.08858545869588852,0.2663549482822418,9.70549488067627,0.03999999910593033,0.0,0.0,0.0,0.03999999910593033,0.0,0.0,0.0,0.03999999910593033
1778815289647189501,275943,1778815289625510704,imu_link,-0.006117319222539663,0.008078580722212791,0.8786019682884216,-0.4774383008480072,0.0024999999441206455,0.0,0.0,0.0,0.0024999999441206455,0.0,0.0,0.0,0.0024999999441206455,0.0,0.0,0.0,0.019999999552965164,0.0,0.0,0.0,0.019999999552965164,0.0,0.0,0.0,0.019999999552965164,-0.08379705995321274,0.25977087020874023,9.780313491821289,0.03999999910593033,0.0,0.0,0.0,0.03999999910593033,0.0,0.0,0.0,0.03999999910593033
1778815289653079054,275944,1778815289630510704,imu_link,-0.00681666424497962,0.00832755770534277,0.878598153591156,-0.4774315357208252,0.0024999999441206455,0.0,0.0,0.0,0.0024999999441206455,0.0,0.0,0.0,0.0024999999441206455,0.0,0.0,0.0,0.019999999552965164,0.0,0.0,0.0,0.019999999552965164,0.0,0.0,0.0,0.019999999552965164,-0.08140285313129425,0.25258827209472656,9.714472770690918,0.03999999910593033,0.0,0.0,0.0,0.03999999910593033,0.0,0.0,0.0,0.03999999910593033
1778815289659260635,275945,1778815289635510704,imu_link,-0.00681666424497962,0.00832755770534277,0.878598153591156,-0.4774315357208252,0.0024999999441206455,0.0,0.0,0.0,0.0024999999441206455,0.0,0.0,0.0,0.0024999999441206455,0.0,0.0,0.0,0.019999999552965164,0.0,0.0,0.0,0.019999999552965164,0.0,0.0,0.0,0.019999999552965164,-0.08140285313129425,0.25258827209472656,9.714472770690918,0.03999999910593033,0.0,0.0,0.0,0.03999999910593033,0.0,0.0,0.0,0.03999999910593033
1778815289667520979,275946,1778815289640510704,imu_link,-0.007554181851446629,0.008443973958492279,0.8785951733589172,-0.4774238169193268,0.0024999999441206455,0.0,0.0,0.0,0.0024999999441206455,0.0,0.0,0.0,0.0024999999441206455,0.0,0.0,0.0,0.019999999552965164,0.0,0.0,0.0,0.019999999552965164,0.0,0.0,0.0,0.019999999552965164,-0.08200141042470932,0.23942016065120697,9.774927139282227,0.03999999910593033,0.0,0.0,0.0,0.03999999910593033,0.0,0.0,0.0,0.03999999910593033
1778815289689515119,275947,1778815289649510704,imu_link,-0.008606549352407455,0.008962605148553848,0.8785861730575562,-0.47741323709487915,0.0024999999441206455,0.0,0.0,0.0,0.0024999999441206455,0.0,0.0,0.0,0.0024999999441206455,0.0,0.0,0.0,0.019999999552965164,0.0,0.0,0.0,0.019999999552965164,0.0,0.0,0.0,0.019999999552965164,-0.07841010391712189,0.25438392162323,9.769539833068848,0.03999999910593033,0.0,0.0,0.0,0.03999999910593033,0.0,0.0,0.0,0.03999999910593033
1778815289697320312,275948,1778815289654510704,imu_link,-0.008606549352407455,0.008962605148553848,0.8785861730575562,-0.47741323709487915,0.0024999999441206455,0.0,0.0,0.0,0.0024999999441206455,0.0,0.0,0.0,0.0024999999441206455,0.0,0.0,0.0,0.019999999552965164,0.0,0.0,0.0,0.019999999552965164,0.0,0.0,0.0,0.019999999552965164,-0.07841010391712189,0.25438392162323,9.769539833068848,0.03999999910593033,0.0,0.0,0.0,0.03999999910593033,0.0,0.0,0.0,0.03999999910593033
1778815289718731351,275949,1778815289694510704,imu_link,-0.012533335015177727,0.0077812401577830315,0.8785800337791443,-0.47735828161239624,0.0024999999441206455,0.0,0.0,0.0,0.0024999999441206455,0.0,0.0,0.0,0.0024999999441206455,0.0,0.0,0.0,0.019999999552965164,0.0,0.0,0.0,0.019999999552965164,0.0,0.0,0.0,0.019999999552965164,-0.10833762586116791,0.243011474609375,9.750985145568848,0.03999999910593033,0.0,0.0,0.0,0.03999999910593033,0.0,0.0,0.0,0.03999999910593033
1778815289724584551,275950,1778815289697510704,imu_link,-0.011866680346429348,0.007607323117554188,0.8785868287086487,-0.4773654043674469,0.0024999999441206455,0.0,0.0,0.0,0.0024999999441206455,0.0,0.0,0.0,0.0024999999441206455,0.0,0.0,0.0,0.019999999552965164,0.0,0.0,0.0,0.019999999552965164,0.0,0.0,0.0,0.019999999552965164,-0.10773907601833344,0.2172738015651703,9.719261169433594,0.03999999910593033,0.0,0.0,0.0,0.03999999910593033,0.0,0.0,0.0,0.03999999910593033
1778815289731734518,275951,1778815289702510704,imu_link,-0.011866680346429348,0.007607323117554188,0.8785868287086487,-0.4773654043674469,0.0024999999441206455,0.0,0.0,0.0,0.0024999999441206455,0.0,0.0,0.0,0.0024999999441206455,0.0,0.0,0.0,0.019999999552965164,0.0,0.0,0.0,0.019999999552965164,0.0,0.0,0.0,0.019999999552965164,-0.10773907601833344,0.2172738015651703,9.719261169433594,0.03999999910593033,0.0,0.0,0.0,0.03999999910593033,0.0,0.0,0.0,0.03999999910593033
1778815289737025174,275952,1778815289707510704,imu_link,-0.011374822817742825,0.008169429376721382,0.8785830140113831,-0.47737517952919006,0.0024999999441206455,0.0,0.0,0.0,0.0024999999441206455,0.0,0.0,0.0,0.0024999999441206455,0.0,0.0,0.0,0.019999999552965164,0.0,0.0,0.0,0.019999999552965164,0.0,0.0,0.0,0.019999999552965164,-0.07481880486011505,0.2627636194229126,9.767744064331055,0.03999999910593033,0.0,0.0,0.0,0.03999999910593033,0.0,0.0,0.0,0.03999999910593033
1778815289742606407,275953,1778815289712510704,imu_link,-0.011037505231797695,0.008830118924379349,0.8785765171051025,-0.4773833453655243,0.0024999999441206455,0.0,0.0,0.0,0.0024999999441206455,0.0,0.0,0.0,0.0024999999441206455,0.0,0.0,0.0,0.019999999552965164,0.0,0.0,0.0,0.019999999552965164,0.0,0.0,0.0,0.019999999552965164,-0.08499415963888168,0.2687491476535797,9.737217903137207,0.03999999910593033,0.0,0.0,0.0,0.03999999910593033,0.0,0.0,0.0,0.03999999910593033
1778815289748629645,275954,1778815289717510704,imu_link,-0.011037505231797695,0.008830118924379349,0.8785765171051025,-0.4773833453655243,0.0024999999441206455,0.0,0.0,0.0,0.0024999999441206455,0.0,0.0,0.0,0.0024999999441206455,0.0,0.0,0.0,0.019999999552965164,0.0,0.0,0.0,0.019999999552965164,0.0,0.0,0.0,0.019999999552965164,-0.08499415963888168,0.2687491476535797,9.737217903137207,0.03999999910593033,0.0,0.0,0.0,0.03999999910593033,0.0,0.0,0.0,0.03999999910593033
1778815289754595753,275955,1778815289722510704,imu_link,-0.010337427258491516,0.009089705534279346,0.8785766959190369,-0.47739377617836,0.0024999999441206455,0.0,0.0,0.0,0.0024999999441206455,0.0,0.0,0.0,0.0024999999441206455,0.0,0.0,0.0,0.019999999552965164,0.0,0.0,0.0,0.019999999552965164,0.0,0.0,0.0,0.019999999552965164,-0.08559270948171616,0.2513911724090576,9.763554573059082,0.03999999910593033,0.0,0.0,0.0,0.03999999910593033,0.0,0.0,0.0,0.03999999910593033
1778815289781333359,275956,1778815289731510704,imu_link,-0.009211299009621143,0.009418640285730362,0.8785772323608398,-0.47740960121154785,0.0024999999441206455,0.0,0.0,0.0,0.0024999999441206455,0.0,0.0,0.0,0.0024999999441206455,0.0,0.0,0.0,0.019999999552965164,0.0,0.0,0.0,0.019999999552965164,0.0,0.0,0.0,0.019999999552965164,-0.07122749835252762,0.2472013235092163,9.74021053314209,0.03999999910593033,0.0,0.0,0.0,0.03999999910593033,0.0,0.0,0.0,0.03999999910593033
1778815289804729186,275957,1778815289778510704,imu_link,-0.012259013950824738,0.00638316385447979,0.8785966038703918,-0.47735562920570374,0.0024999999441206455,0.0,0.0,0.0,0.0024999999441206455,0.0,0.0,0.0,0.0024999999441206455,0.0,0.0,0.0,0.019999999552965164,0.0,0.0,0.0,0.019999999552965164,0.0,0.0,0.0,0.019999999552965164,-0.10654197633266449,0.2364274114370346,9.746794700622559,0.03999999910593033,0.0,0.0,0.0,0.03999999910593033,0.0,0.0,0.0,0.03999999910593033
1778815289810245780,275958,1778815289781510704,imu_link,-0.011839729733765125,0.006931574083864689,0.8785933256149292,-0.47736454010009766,0.0024999999441206455,0.0,0.0,0.0,0.0024999999441206455,0.0,0.0,0.0,0.0024999999441206455,0.0,0.0,0.0,0.019999999552965164,0.0,0.0,0.0,0.019999999552965164,0.0,0.0,0.0,0.019999999552965164,-0.10295066982507706,0.24480712413787842,9.747393608093262,0.03999999910593033,0.0,0.0,0.0,0.03999999910593033,0.0,0.0,0.0,0.03999999910593033
1778815289816027989,275959,1778815289786510704,imu_link,-0.011525657027959824,0.007320684846490622,0.8785908818244934,-0.477370947599411,0.0024999999441206455,0.0,0.0,0.0,0.0024999999441206455,0.0,0.0,0.0,0.0024999999441206455,0.0,0.0,0.0,0.019999999552965164,0.0,0.0,0.0,0.019999999552965164,0.0,0.0,0.0,0.019999999552965164,-0.09038111567497253,0.24839842319488525,9.729436874389648,0.03999999910593033,0.0,0.0,0.0,0.03999999910593033,0.0,0.0,0.0,0.03999999910593033
1778815289821480288,275960,1778815289791510704,imu_link,-0.011130307801067829,0.0076268441043794155,0.8785897493362427,-0.47737765312194824,0.0024999999441206455,0.0,0.0,0.0,0.0024999999441206455,0.0,0.0,0.0,0.0024999999441206455,0.0,0.0,0.0,0.019999999552965164,0.0,0.0,0.0,0.019999999552965164,0.0,0.0,0.0,0.019999999552965164,-0.090979665517807,0.23942016065120697,9.764751434326172,0.03999999910593033,0.0,0.0,0.0,0.03999999910593033,0.0,0.0,0.0,0.03999999910593033
1778815289829042948,275961,1778815289796510704,imu_link,-0.011130307801067829,0.0076268441043794155,0.8785897493362427,-0.47737765312194824,0.0024999999441206455,0.0,0.0,0.0,0.0024999999441206455,0.0,0.0,0.0,0.0024999999441206455,0.0,0.0,0.0,0.019999999552965164,0.0,0.0,0.0,0.019999999552965164,0.0,0.0,0.0,0.019999999552965164,-0.090979665517807,0.23942016065120697,9.764751434326172,0.03999999910593033,0.0,0.0,0.0,0.03999999910593033,0.0,0.0,0.0,0.03999999910593033
1778815289836204709,275962,1778815289801510704,imu_link,-0.010654459707438946,0.008202451281249523,0.8785855174064636,-0.4773867726325989,0.0024999999441206455,0.0,0.0,0.0,0.0024999999441206455,0.0,0.0,0.0,0.0024999999441206455,0.0,0.0,0.0,0.019999999552965164,0.0,0.0,0.0,0.019999999552965164,0.0,0.0,0.0,0.019999999552965164,-0.0933738648891449,0.2454056739807129,9.765350341796875,0.03999999910593033,0.0,0.0,0.0,0.03999999910593033,0.0,0.0,0.0,0.03999999910593033
1778815289841553600,275963,1778815289806510704,imu_link,-0.010188057087361813,0.00838266871869564,0.878585696220398,-0.47739338874816895,0.0024999999441206455,0.0,0.0,0.0,0.0024999999441206455,0.0,0.0,0.0,0.0024999999441206455,0.0,0.0,0.0,0.019999999552965164,0.0,0.0,0.0,0.019999999552965164,0.0,0.0,0.0,0.019999999552965164,-0.09038111567497253,0.23762451112270355,9.744998931884766,0.03999999910593033,0.0,0.0,0.0,0.03999999910593033,0.0,0.0,0.0,0.03999999910593033
1778815289865616340,275964,1778815289815510704,imu_link,-0.0104700131341815,0.009515916928648949,0.8785699009895325,-0.477395236492157,0.0024999999441206455,0.0,0.0,0.0,0.0024999999441206455,0.0,0.0,0.0,0.0024999999441206455,0.0,0.0,0.0,0.019999999552965164,0.0,0.0,0.0,0.019999999552965164,0.0,0.0,0.0,0.019999999552965164,-0.09157821536064148,0.25677812099456787,9.735422134399414,0.03999999910593033,0.0,0.0,0.0,0.03999999910593033,0.0,0.0,0.0,0.03999999910593033
1778815289887687270,275965,1778815289871510704,imu_link,-0.00699950335547328,0.00565291428938508,0.8786258101463318,-0.4774171710014343,0.0024999999441206455,0.0,0.0,0.0,0.0024999999441206455,0.0,0.0,0.0,0.0024999999441206455,0.0,0.0,0.0,0.019999999552965164,0.0,0.0,0.0,0.019999999552965164,0.0,0.0,0.0,0.019999999552965164,-0.08499415963888168,0.23582886159420013,9.777320861816406,0.03999999910593033,0.0,0.0,0.0,0.03999999910593033,0.0,0.0,0.0,0.03999999910593033
1778815289894710598,275966,1778815289874510704,imu_link,-0.0073833460919559,0.006226605735719204,0.8786195516586304,-0.4774158298969269,0.0024999999441206455,0.0,0.0,0.0,0.0024999999441206455,0.0,0.0,0.0,0.0024999999441206455,0.0,0.0,0.0,0.019999999552965164,0.0,0.0,0.0,0.019999999552965164,0.0,0.0,0.0,0.019999999552965164,-0.07781155407428741,0.2753331959247589,9.759963035583496,0.03999999910593033,0.0,0.0,0.0,0.03999999910593033,0.0,0.0,0.0,0.03999999910593033
1778815289900611518,275967,1778815289879510704,imu_link,-0.007668236270546913,0.00663748336955905,0.8786146640777588,-0.477414608001709,0.0024999999441206455,0.0,0.0,0.0,0.0024999999441206455,0.0,0.0,0.0,0.0024999999441206455,0.0,0.0,0.0,0.019999999552965164,0.0,0.0,0.0,0.019999999552965164,0.0,0.0,0.0,0.019999999552965164,-0.07721300423145294,0.25498247146606445,9.749787330627441,0.03999999910593033,0.0,0.0,0.0,0.03999999910593033,0.0,0.0,0.0,0.03999999910593033
1778815289905888940,275968,1778815289884510704,imu_link,-0.007668236270546913,0.00663748336955905,0.8786146640777588,-0.477414608001709,0.0024999999441206455,0.0,0.0,0.0,0.0024999999441206455,0.0,0.0,0.0,0.0024999999441206455,0.0,0.0,0.0,0.019999999552965164,0.0,0.0,0.0,0.019999999552965164,0.0,0.0,0.0,0.019999999552965164,-0.07721300423145294,0.25498247146606445,9.749787330627441,0.03999999910593033,0.0,0.0,0.0,0.03999999910593033,0.0,0.0,0.0,0.03999999910593033
1778815289911590919,275969,1778815289889510704,imu_link,-0.008168138563632965,0.007192552555352449,0.8786073923110962,-0.47741174697875977,0.0024999999441206455,0.0,0.0,0.0,0.0024999999441206455,0.0,0.0,0.0,0.0024999999441206455,0.0,0.0,0.0,0.019999999552965164,0.0,0.0,0.0,0.019999999552965164,0.0,0.0,0.0,0.019999999552965164,-0.0867898091673851,0.2561795711517334,9.80724811553955,0.03999999910593033,0.0,0.0,0.0,0.03999999910593033,0.0,0.0,0.0,0.03999999910593033
1778815289917346757,275970,1778815289894510704,imu_link,-0.008647408336400986,0.007758432999253273,0.8785995841026306,-0.47740885615348816,0.0024999999441206455,0.0,0.0,0.0,0.0024999999441206455,0.0,0.0,0.0,0.0024999999441206455,0.0,0.0,0.0,0.019999999552965164,0.0,0.0,0.0,0.019999999552965164,0.0,0.0,0.0,0.019999999552965164,-0.08080430328845978,0.2364274114370346,9.77672290802002,0.03999999910593033,0.0,0.0,0.0,0.03999999910593033,0.0,0.0,0.0,0.03999999910593033
1778815289924307605,275971,1778815289899510704,imu_link,-0.008647408336400986,0.007758432999253273,0.8785995841026306,-0.47740885615348816,0.0024999999441206455,0.0,0.0,0.0,0.0024999999441206455,0.0,0.0,0.0,0.0024999999441206455,0.0,0.0,0.0,0.019999999552965164,0.0,0.0,0.0,0.019999999552965164,0.0,0.0,0.0,0.019999999552965164,-0.08080430328845978,0.2364274114370346,9.77672290802002,0.03999999910593033,0.0,0.0,0.0,0.03999999910593033,0.0,0.0,0.0,0.03999999910593033
1778815289949159212,275972,1778815289908510704,imu_link,-0.009627529419958591,0.008780794218182564,0.8785837292671204,-0.4774015545845032,0.0024999999441206455,0.0,0.0,0.0,0.0024999999441206455,0.0,0.0,0.0,0.0024999999441206455,0.0,0.0,0.0,0.019999999552965164,0.0,0.0,0.0,0.019999999552965164,0.0,0.0,0.0,0.019999999552965164,-0.08319851011037827,0.24001871049404144,9.732429504394531,0.03999999910593033,0.0,0.0,0.0,0.03999999910593033,0.0,0.0,0.0,0.03999999910593033
1778815289954436214,275973,1778815289913510704,imu_link,-0.009627529419958591,0.008780794218182564,0.8785837292671204,-0.4774015545845032,0.0024999999441206455,0.0,0.0,0.0,0.0024999999441206455,0.0,0.0,0.0,0.0024999999441206455,0.0,0.0,0.0,0.019999999552965164,0.0,0.0,0.0,0.019999999552965164,0.0,0.0,0.0,0.019999999552965164,-0.08319851011037827,0.24001871049404144,9.732429504394531,0.03999999910593033,0.0,0.0,0.0,0.03999999910593033,0.0,0.0,0.0,0.03999999910593033
1778815289977650151,275974,1778815289956510704,imu_link,-0.013689076527953148,0.007099369075149298,0.8785786032676697,-0.4773397445678711,0.0024999999441206455,0.0,0.0,0.0,0.0024999999441206455,0.0,0.0,0.0,0.0024999999441206455,0.0,0.0,0.0,0.019999999552965164,0.0,0.0,0.0,0.019999999552965164,0.0,0.0,0.0,0.019999999552965164,-0.09935937076807022,0.24241292476654053,9.77372932434082,0.03999999910593033,0.0,0.0,0.0,0.03999999910593033,0.0,0.0,0.0,0.03999999910593033
1778815289983217742,275975,1778815289959510704,imu_link,-0.01309333648532629,0.007450325880199671,0.8785790205001831,-0.47735029458999634,0.0024999999441206455,0.0,0.0,0.0,0.0024999999441206455,0.0,0.0,0.0,0.0024999999441206455,0.0,0.0,0.0,0.019999999552965164,0.0,0.0,0.0,0.019999999552965164,0.0,0.0,0.0,0.019999999552965164,-0.10714052617549896,0.25079262256622314,9.731232643127441,0.03999999910593033,0.0,0.0,0.0,0.03999999910593033,0.0,0.0,0.0,0.03999999910593033
1778815289989037775,275976,1778815289964510704,imu_link,-0.01309333648532629,0.007450325880199671,0.8785790205001831,-0.47735029458999634,0.0024999999441206455,0.0,0.0,0.0,0.0024999999441206455,0.0,0.0,0.0,0.0024999999441206455,0.0,0.0,0.0,0.019999999552965164,0.0,0.0,0.0,0.019999999552965164,0.0,0.0,0.0,0.019999999552965164,-0.10714052617549896,0.25079262256622314,9.731232643127441,0.03999999910593033,0.0,0.0,0.0,0.03999999910593033,0.0,0.0,0.0,0.03999999910593033
1778815289997151537,275977,1778815289969510704,imu_link,-0.012526022270321846,0.00793564785271883,0.8785771131515503,-0.4773612916469574,0.0024999999441206455,0.0,0.0,0.0,0.0024999999441206455,0.0,0.0,0.0,0.0024999999441206455,0.0,0.0,0.0,0.019999999552965164,0.0,0.0,0.0,0.019999999552965164,0.0,0.0,0.0,0.019999999552965164,-0.10654197633266449,0.25917232036590576,9.72285270690918,0.03999999910593033,0.0,0.0,0.0,0.03999999910593033,0.0,0.0,0.0,0.03999999910593033
1778815290002322741,275978,1778815289974510704,imu_link,-0.011825288645923138,0.008180265314877033,0.8785787224769592,-0.4773719906806946,0.0024999999441206455,0.0,0.0,0.0,0.0024999999441206455,0.0,0.0,0.0,0.0024999999441206455,0.0,0.0,0.0,0.019999999552965164,0.0,0.0,0.0,0.019999999552965164,0.0,0.0,0.0,0.019999999552965164,-0.08319851011037827,0.24241292476654053,9.714472770690918,0.03999999910593033,0.0,0.0,0.0,0.03999999910593033,0.0,0.0,0.0,0.03999999910593033
1778815290008132941,275979,1778815289979510704,imu_link,-0.011825288645923138,0.008180265314877033,0.8785787224769592,-0.4773719906806946,0.0024999999441206455,0.0,0.0,0.0,0.0024999999441206455,0.0,0.0,0.0,0.0024999999441206455,0.0,0.0,0.0,0.019999999552965164,0.0,0.0,0.0,0.019999999552965164,0.0,0.0,0.0,0.019999999552965164,-0.08319851011037827,0.24241292476654053,9.714472770690918,0.03999999910593033,0.0,0.0,0.0,0.03999999910593033,0.0,0.0,0.0,0.03999999910593033
1778815290014622579,275980,1778815289984510704,imu_link,-0.011203153990209103,0.008593348786234856,0.8785772323608398,-0.4773825407028198,0.0024999999441206455,0.0,0.0,0.0,0.0024999999441206455,0.0,0.0,0.0,0.0024999999441206455,0.0,0.0,0.0,0.019999999552965164,0.0,0.0,0.0,0.019999999552965164,0.0,0.0,0.0,0.019999999552965164,-0.07422025501728058,0.25498247146606445,9.750985145568848,0.03999999910593033,0.0,0.0,0.0,0.03999999910593033,0.0,0.0,0.0,0.03999999910593033
1778815290055614434,275981,1778815290038510704,imu_link,-0.0063867112621665,0.010733425617218018,0.8785650134086609,-0.47745034098625183,0.0024999999441206455,0.0,0.0,0.0,0.0024999999441206455,0.0,0.0,0.0,0.0024999999441206455,0.0,0.0,0.0,0.019999999552965164,0.0,0.0,0.0,0.019999999552965164,0.0,0.0,0.0,0.019999999552965164,-0.06883329898118973,0.24839842319488525,9.759364128112793,0.03999999910593033,0.0,0.0,0.0,0.03999999910593033,0.0,0.0,0.0,0.03999999910593033
1778815290061427786,275982,1778815290041510704,imu_link,-0.00699175801128149,0.010395857505500317,0.878568708896637,-0.47744253277778625,0.0024999999441206455,0.0,0.0,0.0,0.0024999999441206455,0.0,0.0,0.0,0.0024999999441206455,0.0,0.0,0.0,0.019999999552965164,0.0,0.0,0.0,0.019999999552965164,0.0,0.0,0.0,0.019999999552965164,-0.0933738648891449,0.24181437492370605,9.72285270690918,0.03999999910593033,0.0,0.0,0.0,0.03999999910593033,0.0,0.0,0.0,0.03999999910593033
1778815290068759387,275983,1778815290046510704,imu_link,-0.00699175801128149,0.010395857505500317,0.878568708896637,-0.47744253277778625,0.0024999999441206455,0.0,0.0,0.0,0.0024999999441206455,0.0,0.0,0.0,0.0024999999441206455,0.0,0.0,0.0,0.019999999552965164,0.0,0.0,0.0,0.019999999552965164,0.0,0.0,0.0,0.019999999552965164,-0.0933738648891449,0.24181437492370605,9.72285270690918,0.03999999910593033,0.0,0.0,0.0,0.03999999910593033,0.0,0.0,0.0,0.03999999910593033
1778815290074396951,275984,1778815290051510704,imu_link,-0.00765716889873147,0.01005741860717535,0.8785719871520996,-0.4774337410926819,0.0024999999441206455,0.0,0.0,0.0,0.0024999999441206455,0.0,0.0,0.0,0.0024999999441206455,0.0,0.0,0.0,0.019999999552965164,0.0,0.0,0.0,0.019999999552965164,0.0,0.0,0.0,0.019999999552965164,-0.0694318488240242,0.24420857429504395,9.73661994934082,0.03999999910593033,0.0,0.0,0.0,0.03999999910593033,0.0,0.0,0.0,0.03999999910593033
1778815290079782059,275985,1778815290056510704,imu_link,-0.008341620676219463,0.009770851582288742,0.8785738945007324,-0.4774244725704193,0.0024999999441206455,0.0,0.0,0.0,0.0024999999441206455,0.0,0.0,0.0,0.0024999999441206455,0.0,0.0,0.0,0.019999999552965164,0.0,0.0,0.0,0.019999999552965164,0.0,0.0,0.0,0.019999999552965164,-0.07960720360279083,0.24839842319488525,9.768342971801758,0.03999999910593033,0.0,0.0,0.0,0.03999999910593033,0.0,0.0,0.0,0.03999999910593033
1778815290084962355,275986,1778815290061510704,imu_link,-0.008341620676219463,0.009770851582288742,0.8785738945007324,-0.4774244725704193,0.0024999999441206455,0.0,0.0,0.0,0.0024999999441206455,0.0,0.0,0.0,0.0024999999441206455,0.0,0.0,0.0,0.019999999552965164,0.0,0.0,0.0,0.019999999552965164,0.0,0.0,0.0,0.019999999552965164,-0.07960720360279083,0.24839842319488525,9.768342971801758,0.03999999910593033,0.0,0.0,0.0,0.03999999910593033,0.0,0.0,0.0,0.03999999910593033
1778815290090620380,275987,1778815290066510704,imu_link,-0.008396095596253872,0.00902611669152975,0.8785829544067383,-0.47742173075675964,0.0024999999441206455,0.0,0.0,0.0,0.0024999999441206455,0.0,0.0,0.0,0.0024999999441206455,0.0,0.0,0.0,0.019999999552965164,0.0,0.0,0.0,0.019999999552965164,0.0,0.0,0.0,0.019999999552965164,-0.07422025501728058,0.21009118854999542,9.739013671875,0.03999999910593033,0.0,0.0,0.0,0.03999999910593033,0.0,0.0,0.0,0.03999999910593033
1778815290115338516,275988,1778815290075510704,imu_link,-0.00955701433122158,0.009201268665492535,0.8785766363143921,-0.4774080514907837,0.0024999999441206455,0.0,0.0,0.0,0.0024999999441206455,0.0,0.0,0.0,0.0024999999441206455,0.0,0.0,0.0,0.019999999552965164,0.0,0.0,0.0,0.019999999552965164,0.0,0.0,0.0,0.019999999552965164,-0.07661445438861847,0.24600422382354736,9.77253246307373,0.03999999910593033,0.0,0.0,0.0,0.03999999910593033,0.0,0.0,0.0,0.03999999910593033
1778815290121109942,275989,1778815290080510704,imu_link,-0.00955701433122158,0.009201268665492535,0.8785766363143921,-0.4774080514907837,0.0024999999441206455,0.0,0.0,0.0,0.0024999999441206455,0.0,0.0,0.0,0.0024999999441206455,0.0,0.0,0.0,0.019999999552965164,0.0,0.0,0.0,0.019999999552965164,0.0,0.0,0.0,0.019999999552965164,-0.07661445438861847,0.24600422382354736,9.77253246307373,0.03999999910593033,0.0,0.0,0.0,0.03999999910593033,0.0,0.0,0.0,0.03999999910593033
1778815290143620697,275990,1778815290126510704,imu_link,-0.011362193152308464,0.004863405600190163,0.878614604473114,-0.47736260294914246,0.0024999999441206455,0.0,0.0,0.0,0.0024999999441206455,0.0,0.0,0.0,0.0024999999441206455,0.0,0.0,0.0,0.019999999552965164,0.0,0.0,0.0,0.019999999552965164,0.0,0.0,0.0,0.019999999552965164,-0.09876082092523575,0.22924481332302094,9.725247383117676,0.03999999910593033,0.0,0.0,0.0,0.03999999910593033,0.0,0.0,0.0,0.03999999910593033
1778815290149165733,275991,1778815290129510704,imu_link,-0.011204425245523453,0.005539889447391033,0.8786090016365051,-0.47736915946006775,0.0024999999441206455,0.0,0.0,0.0,0.0024999999441206455,0.0,0.0,0.0,0.0024999999441206455,0.0,0.0,0.0,0.019999999552965164,0.0,0.0,0.0,0.019999999552965164,0.0,0.0,0.0,0.019999999552965164,-0.09696516394615173,0.24899697303771973,9.77253246307373,0.03999999910593033,0.0,0.0,0.0,0.03999999910593033,0.0,0.0,0.0,0.03999999910593033
1778815290154797386,275992,1778815290134510704,imu_link,-0.011128690093755722,0.006034466903656721,0.8786044120788574,-0.4773734509944916,0.0024999999441206455,0.0,0.0,0.0,0.0024999999441206455,0.0,0.0,0.0,0.0024999999441206455,0.0,0.0,0.0,0.019999999552965164,0.0,0.0,0.0,0.019999999552965164,0.0,0.0,0.0,0.019999999552965164,-0.08080430328845978,0.2783259451389313,9.763554573059082,0.03999999910593033,0.0,0.0,0.0,0.03999999910593033,0.0,0.0,0.0,0.03999999910593033
1778815290161338212,275993,1778815290139510704,imu_link,-0.011128690093755722,0.006034466903656721,0.8786044120788574,-0.4773734509944916,0.0024999999441206455,0.0,0.0,0.0,0.0024999999441206455,0.0,0.0,0.0,0.0024999999441206455,0.0,0.0,0.0,0.019999999552965164,0.0,0.0,0.0,0.019999999552965164,0.0,0.0,0.0,0.019999999552965164,-0.08080430328845978,0.2783259451389313,9.763554573059082,0.03999999910593033,0.0,0.0,0.0,0.03999999910593033,0.0,0.0,0.0,0.03999999910593033
1778815290169096021,275994,1778815290144510704,imu_link,-0.010822691023349762,0.006716176401823759,0.8785990476608276,-0.47738125920295715,0.0024999999441206455,0.0,0.0,0.0,0.0024999999441206455,0.0,0.0,0.0,0.0024999999441206455,0.0,0.0,0.0,0.019999999552965164,0.0,0.0,0.0,0.019999999552965164,0.0,0.0,0.0,0.019999999552965164,-0.0802057534456253,0.24899697303771973,9.767146110534668,0.03999999910593033,0.0,0.0,0.0,0.03999999910593033,0.0,0.0,0.0,0.03999999910593033
1778815290175070369,275995,1778815290149510704,imu_link,-0.010522236116230488,0.007116158492863178,0.8785964846611023,-0.47738707065582275,0.0024999999441206455,0.0,0.0,0.0,0.0024999999441206455,0.0,0.0,0.0,0.0024999999441206455,0.0,0.0,0.0,0.019999999552965164,0.0,0.0,0.0,0.019999999552965164,0.0,0.0,0.0,0.019999999552965164,-0.08319851011037827,0.2346317619085312,9.770736694335938,0.03999999910593033,0.0,0.0,0.0,0.03999999910593033,0.0,0.0,0.0,0.03999999910593033
1778815290180902252,275996,1778815290154510704,imu_link,-0.010379812680184841,0.007596322800964117,0.8785916566848755,-0.4773913621902466,0.0024999999441206455,0.0,0.0,0.0,0.0024999999441206455,0.0,0.0,0.0,0.0024999999441206455,0.0,0.0,0.0,0.019999999552965164,0.0,0.0,0.0,0.019999999552965164,0.0,0.0,0.0,0.019999999552965164,-0.07422025501728058,0.2603694200515747,9.768342971801758,0.03999999910593033,0.0,0.0,0.0,0.03999999910593033,0.0,0.0,0.0,0.03999999910593033
1778815290204507942,275997,1778815290163510704,imu_link,-0.01059337891638279,0.008748054504394531,0.8785765767097473,-0.4773949086666107,0.0024999999441206455,0.0,0.0,0.0,0.0024999999441206455,0.0,0.0,0.0,0.0024999999441206455,0.0,0.0,0.0,0.019999999552965164,0.0,0.0,0.0,0.019999999552965164,0.0,0.0,0.0,0.019999999552965164,-0.09457096457481384,0.264559268951416,9.732429504394531,0.03999999910593033,0.0,0.0,0.0,0.03999999910593033,0.0,0.0,0.0,0.03999999910593033
1778815290226323727,275998,1778815290205510704,imu_link,-0.007773229386657476,0.006226778496056795,0.8786168694496155,-0.47741448879241943,0.0024999999441206455,0.0,0.0,0.0,0.0024999999441206455,0.0,0.0,0.0,0.0024999999441206455,0.0,0.0,0.0,0.019999999552965164,0.0,0.0,0.0,0.019999999552965164,0.0,0.0,0.0,0.019999999552965164,-0.08738835901021957,0.21308395266532898,9.749787330627441,0.03999999910593033,0.0,0.0,0.0,0.03999999910593033,0.0,0.0,0.0,0.03999999910593033
1778815290233784910,275999,1778815290208510704,imu_link,-0.00831577368080616,0.006662440020591021,0.8786106109619141,-0.47741109132766724,0.0024999999441206455,0.0,0.0,0.0,0.0024999999441206455,0.0,0.0,0.0,0.0024999999441206455,0.0,0.0,0.0,0.019999999552965164,0.0,0.0,0.0,0.019999999552965164,0.0,0.0,0.0,0.019999999552965164,-0.10474631935358047,0.2495955228805542,9.7791166305542,0.03999999910593033,0.0,0.0,0.0,0.03999999910593033,0.0,0.0,0.0,0.03999999910593033
1778815290238941401,276000,1778815290213510704,imu_link,-0.00831577368080616,0.006662440020591021,0.8786106109619141,-0.47741109132766724,0.0024999999441206455,0.0,0.0,0.0,0.0024999999441206455,0.0,0.0,0.0,0.0024999999441206455,0.0,0.0,0.0,0.019999999552965164,0.0,0.0,0.0,0.019999999552965164,0.0,0.0,0.0,0.019999999552965164,-0.10474631935358047,0.2495955228805542,9.7791166305542,0.03999999910593033,0.0,0.0,0.0,0.03999999910593033,0.0,0.0,0.0,0.03999999910593033
1778815290243456252,276001,1778815290218510704,imu_link,-0.008569242432713509,0.007365780882537365,0.8786024451255798,-0.4774113595485687,0.0024999999441206455,0.0,0.0,0.0,0.0024999999441206455,0.0,0.0,0.0,0.0024999999441206455,0.0,0.0,0.0,0.019999999552965164,0.0,0.0,0.0,0.019999999552965164,0.0,0.0,0.0,0.019999999552965164,-0.07302314788103104,0.24181437492370605,9.770736694335938,0.03999999910593033,0.0,0.0,0.0,0.03999999910593033,0.0,0.0,0.0,0.03999999910593033
1778815290250858276,276002,1778815290223510704,imu_link,-0.00897572934627533,0.007656474132090807,0.8785975575447083,-0.47740814089775085,0.0024999999441206455,0.0,0.0,0.0,0.0024999999441206455,0.0,0.0,0.0,0.0024999999441206455,0.0,0.0,0.0,0.019999999552965164,0.0,0.0,0.0,0.019999999552965164,0.0,0.0,0.0,0.019999999552965164,-0.09038111567497253,0.23104046285152435,9.765350341796875,0.03999999910593033,0.0,0.0,0.0,0.03999999910593033,0.0,0.0,0.0,0.03999999910593033
1778815290256292562,276003,1778815290228510704,imu_link,-0.009241519495844841,0.008079896681010723,0.8785916566848755,-0.47740694880485535,0.0024999999441206455,0.0,0.0,0.0,0.0024999999441206455,0.0,0.0,0.0,0.0024999999441206455,0.0,0.0,0.0,0.019999999552965164,0.0,0.0,0.0,0.019999999552965164,0.0,0.0,0.0,0.019999999552965164,-0.08499415963888168,0.2537853717803955,9.752182006835938,0.03999999910593033,0.0,0.0,0.0,0.03999999910593033,0.0,0.0,0.0,0.03999999910593033
1778815290264313526,276004,1778815290233510704,imu_link,-0.009912261739373207,0.008396756835281849,0.8785849809646606,-0.4774004817008972,0.0024999999441206455,0.0,0.0,0.0,0.0024999999441206455,0.0,0.0,0.0,0.0024999999441206455,0.0,0.0,0.0,0.019999999552965164,0.0,0.0,0.0,0.019999999552965164,0.0,0.0,0.0,0.019999999552965164,-0.11133037507534027,0.2627636194229126,9.723451614379883,0.03999999910593033,0.0,0.0,0.0,0.03999999910593033,0.0,0.0,0.0,0.03999999910593033
1778815290285048584,276005,1778815290242510704,imu_link,-0.010822157375514507,0.008553886786103249,0.8785783648490906,-0.47738996148109436,0.0024999999441206455,0.0,0.0,0.0,0.0024999999441206455,0.0,0.0,0.0,0.0024999999441206455,0.0,0.0,0.0,0.019999999552965164,0.0,0.0,0.0,0.019999999552965164,0.0,0.0,0.0,0.019999999552965164,-0.10055647045373917,0.243011474609375,9.737217903137207,0.03999999910593033,0.0,0.0,0.0,0.03999999910593033,0.0,0.0,0.0,0.03999999910593033
1778815290308500147,276006,1778815290290510704,imu_link,-0.007155324332416058,0.010967657901346684,0.8785591125488281,-0.47744494676589966,0.0024999999441206455,0.0,0.0,0.0,0.0024999999441206455,0.0,0.0,0.0,0.0024999999441206455,0.0,0.0,0.0,0.019999999552965164,0.0,0.0,0.0,0.019999999552965164,0.0,0.0,0.0,0.019999999552965164,-0.08559270948171616,0.24839842319488525,9.723451614379883,0.03999999910593033,0.0,0.0,0.0,0.03999999910593033,0.0,0.0,0.0,0.03999999910593033
1778815290314033330,276007,1778815290293510704,imu_link,-0.007685408461838961,0.0105151841416955,0.8785643577575684,-0.47743749618530273,0.0024999999441206455,0.0,0.0,0.0,0.0024999999441206455,0.0,0.0,0.0,0.0024999999441206455,0.0,0.0,0.0,0.019999999552965164,0.0,0.0,0.0,0.019999999552965164,0.0,0.0,0.0,0.019999999552965164,-0.07302314788103104,0.24420857429504395,9.77791976928711,0.03999999910593033,0.0,0.0,0.0,0.03999999910593033,0.0,0.0,0.0,0.03999999910593033
1778815290319664017,276008,1778815290298510704,imu_link,-0.007685408461838961,0.0105151841416955,0.8785643577575684,-0.47743749618530273,0.0024999999441206455,0.0,0.0,0.0,0.0024999999441206455,0.0,0.0,0.0,0.0024999999441206455,0.0,0.0,0.0,0.019999999552965164,0.0,0.0,0.0,0.019999999552965164,0.0,0.0,0.0,0.019999999552965164,-0.07302314788103104,0.24420857429504395,9.77791976928711,0.03999999910593033,0.0,0.0,0.0,0.03999999910593033,0.0,0.0,0.0,0.03999999910593033
1778815290325314520,276009,1778815290303510704,imu_link,-0.008107704110443592,0.009899109601974487,0.8785712718963623,-0.4774307906627655,0.0024999999441206455,0.0,0.0,0.0,0.0024999999441206455,0.0,0.0,0.0,0.0024999999441206455,0.0,0.0,0.0,0.019999999552965164,0.0,0.0,0.0,0.019999999552965164,0.0,0.0,0.0,0.019999999552965164,-0.104147769510746,0.2148796021938324,9.715071678161621,0.03999999910593033,0.0,0.0,0.0,0.03999999910593033,0.0,0.0,0.0,0.03999999910593033
1778815290333055896,276010,1778815290308510704,imu_link,-0.008418625220656395,0.009507088921964169,0.8785753846168518,-0.4774259030818939,0.0024999999441206455,0.0,0.0,0.0,0.0024999999441206455,0.0,0.0,0.0,0.0024999999441206455,0.0,0.0,0.0,0.019999999552965164,0.0,0.0,0.0,0.019999999552965164,0.0,0.0,0.0,0.019999999552965164,-0.09935937076807022,0.2238578498363495,9.790489196777344,0.03999999910593033,0.0,0.0,0.0,0.03999999910593033,0.0,0.0,0.0,0.03999999910593033
1778815290342019377,276011,1778815290313510704,imu_link,-0.009037056006491184,0.009096299298107624,0.8785783648490906,-0.47741690278053284,0.0024999999441206455,0.0,0.0,0.0,0.0024999999441206455,0.0,0.0,0.0,0.0024999999441206455,0.0,0.0,0.0,0.019999999552965164,0.0,0.0,0.0,0.019999999552965164,0.0,0.0,0.0,0.019999999552965164,-0.08140285313129425,0.2388216108083725,9.740809440612793,0.03999999910593033,0.0,0.0,0.0,0.03999999910593033,0.0,0.0,0.0,0.03999999910593033
1778815290345320649,276012,1778815290318510704,imu_link,-0.009037056006491184,0.009096299298107624,0.8785783648490906,-0.47741690278053284,0.0024999999441206455,0.0,0.0,0.0,0.0024999999441206455,0.0,0.0,0.0,0.0024999999441206455,0.0,0.0,0.0,0.019999999552965164,0.0,0.0,0.0,0.019999999552965164,0.0,0.0,0.0,0.019999999552965164,-0.08140285313129425,0.2388216108083725,9.740809440612793,0.03999999910593033,0.0,0.0,0.0,0.03999999910593033,0.0,0.0,0.0,0.03999999910593033
1778815290368690539,276013,1778815290327510704,imu_link,-0.009121733717620373,0.009250125847756863,0.8785762786865234,-0.47741636633872986,0.0024999999441206455,0.0,0.0,0.0,0.0024999999441206455,0.0,0.0,0.0,0.0024999999441206455,0.0,0.0,0.0,0.019999999552965164,0.0,0.0,0.0,0.019999999552965164,0.0,0.0,0.0,0.019999999552965164,-0.08319851011037827,0.2388216108083725,9.727043151855469,0.03999999910593033,0.0,0.0,0.0,0.03999999910593033,0.0,0.0,0.0,0.03999999910593033
1778815290389952797,276014,1778815290374510704,imu_link,-0.012404976412653923,0.006491652224212885,0.8785908222198486,-0.4773610830307007,0.0024999999441206455,0.0,0.0,0.0,0.0024999999441206455,0.0,0.0,0.0,0.0024999999441206455,0.0,0.0,0.0,0.019999999552965164,0.0,0.0,0.0,0.019999999552965164,0.0,0.0,0.0,0.019999999552965164,-0.08918400853872299,0.2412158101797104,9.810839653015137,0.03999999910593033,0.0,0.0,0.0,0.03999999910593033,0.0,0.0,0.0,0.03999999910593033
1778815290397494309,276015,1778815290377510704,imu_link,-0.011891784146428108,0.0069503444246947765,0.8785892128944397,-0.4773704707622528,0.0024999999441206455,0.0,0.0,0.0,0.0024999999441206455,0.0,0.0,0.0,0.0024999999441206455,0.0,0.0,0.0,0.019999999552965164,0.0,0.0,0.0,0.019999999552965164,0.0,0.0,0.0,0.019999999552965164,-0.08439560979604721,0.24241292476654053,9.737217903137207,0.03999999910593033,0.0,0.0,0.0,0.03999999910593033,0.0,0.0,0.0,0.03999999910593033
1778815290403966032,276016,1778815290382510704,imu_link,-0.011891784146428108,0.0069503444246947765,0.8785892128944397,-0.4773704707622528,0.0024999999441206455,0.0,0.0,0.0,0.0024999999441206455,0.0,0.0,0.0,0.0024999999441206455,0.0,0.0,0.0,0.019999999552965164,0.0,0.0,0.0,0.019999999552965164,0.0,0.0,0.0,0.019999999552965164,-0.08439560979604721,0.24241292476654053,9.737217903137207,0.03999999910593033,0.0,0.0,0.0,0.03999999910593033,0.0,0.0,0.0,0.03999999910593033
1778815290408745449,276017,1778815290387510704,imu_link,-0.011532885022461414,0.007605508901178837,0.8785838484764099,-0.4773792624473572,0.0024999999441206455,0.0,0.0,0.0,0.0024999999441206455,0.0,0.0,0.0,0.0024999999441206455,0.0,0.0,0.0,0.019999999552965164,0.0,0.0,0.0,0.019999999552965164,0.0,0.0,0.0,0.019999999552965164,-0.08439560979604721,0.26755204796791077,9.825803756713867,0.03999999910593033,0.0,0.0,0.0,0.03999999910593033,0.0,0.0,0.0,0.03999999910593033
1778815290414286040,276018,1778815290392510704,imu_link,-0.010834326036274433,0.007856671698391438,0.8785850405693054,-0.47738924622535706,0.0024999999441206455,0.0,0.0,0.0,0.0024999999441206455,0.0,0.0,0.0,0.0024999999441206455,0.0,0.0,0.0,0.019999999552965164,0.0,0.0,0.0,0.019999999552965164,0.0,0.0,0.0,0.019999999552965164,-0.08319851011037827,0.23104046285152435,9.750386238098145,0.03999999910593033,0.0,0.0,0.0,0.03999999910593033,0.0,0.0,0.0,0.03999999910593033
1778815290419892398,276019,1778815290397510704,imu_link,-0.010834326036274433,0.007856671698391438,0.8785850405693054,-0.47738924622535706,0.0024999999441206455,0.0,0.0,0.0,0.0024999999441206455,0.0,0.0,0.0,0.0024999999441206455,0.0,0.0,0.0,0.019999999552965164,0.0,0.0,0.0,0.019999999552965164,0.0,0.0,0.0,0.019999999552965164,-0.08319851011037827,0.23104046285152435,9.750386238098145,0.03999999910593033,0.0,0.0,0.0,0.03999999910593033,0.0,0.0,0.0,0.03999999910593033
1778815290426854758,276020,1778815290402510704,imu_link,-0.010353379882872105,0.008428029716014862,0.8785807490348816,-0.4773982763290405,0.0024999999441206455,0.0,0.0,0.0,0.0024999999441206455,0.0,0.0,0.0,0.0024999999441206455,0.0,0.0,0.0,0.019999999552965164,0.0,0.0,0.0,0.019999999552965164,0.0,0.0,0.0,0.019999999552965164,-0.08140285313129425,0.24839842319488525,9.773131370544434,0.03999999910593033,0.0,0.0,0.0,0.03999999910593033,0.0,0.0,0.0,0.03999999910593033
1778815290450197402,276021,1778815290411510704,imu_link,-0.009188209660351276,0.008290705271065235,0.8785876631736755,-0.4774115979671478,0.0024999999441206455,0.0,0.0,0.0,0.0024999999441206455,0.0,0.0,0.0,0.0024999999441206455,0.0,0.0,0.0,0.019999999552965164,0.0,0.0,0.0,0.019999999552965164,0.0,0.0,0.0,0.019999999552965164,-0.076015904545784,0.22505494952201843,9.773131370544434,0.03999999910593033,0.0,0.0,0.0,0.03999999910593033,0.0,0.0,0.0,0.03999999910593033
1778815290455934619,276022,1778815290416510704,imu_link,-0.009188209660351276,0.008290705271065235,0.8785876631736755,-0.4774115979671478,0.0024999999441206455,0.0,0.0,0.0,0.0024999999441206455,0.0,0.0,0.0,0.0024999999441206455,0.0,0.0,0.0,0.019999999552965164,0.0,0.0,0.0,0.019999999552965164,0.0,0.0,0.0,0.019999999552965164,-0.076015904545784,0.22505494952201843,9.773131370544434,0.03999999910593033,0.0,0.0,0.0,0.03999999910593033,0.0,0.0,0.0,0.03999999910593033
1778815290478568184,276023,1778815290456510704,imu_link,-0.01262432150542736,0.010525484569370747,0.8785400986671448,-0.47737669944763184,0.0024999999441206455,0.0,0.0,0.0,0.0024999999441206455,0.0,0.0,0.0,0.0024999999441206455,0.0,0.0,0.0,0.019999999552965164,0.0,0.0,0.0,0.019999999552965164,0.0,0.0,0.0,0.019999999552965164,-0.08858545869588852,0.243011474609375,9.748590469360352,0.03999999910593033,0.0,0.0,0.0,0.03999999910593033,0.0,0.0,0.0,0.03999999910593033
1778815290484064844,276024,1778815290459510704,imu_link,-0.011944757774472237,0.01041461806744337,0.8785456418991089,-0.4773862659931183,0.0024999999441206455,0.0,0.0,0.0,0.0024999999441206455,0.0,0.0,0.0,0.0024999999441206455,0.0,0.0,0.0,0.019999999552965164,0.0,0.0,0.0,0.019999999552965164,0.0,0.0,0.0,0.019999999552965164,-0.061052143573760986,0.2537853717803955,9.761159896850586,0.03999999910593033,0.0,0.0,0.0,0.03999999910593033,0.0,0.0,0.0,0.03999999910593033
1778815290489717027,276025,1778815290464510704,imu_link,-0.011944757774472237,0.01041461806744337,0.8785456418991089,-0.4773862659931183,0.0024999999441206455,0.0,0.0,0.0,0.0024999999441206455,0.0,0.0,0.0,0.0024999999441206455,0.0,0.0,0.0,0.019999999552965164,0.0,0.0,0.0,0.019999999552965164,0.0,0.0,0.0,0.019999999552965164,-0.061052143573760986,0.2537853717803955,9.761159896850586,0.03999999910593033,0.0,0.0,0.0,0.03999999910593033,0.0,0.0,0.0,0.03999999910593033
1778815290497924021,276026,1778815290469510704,imu_link,-0.01132425107061863,0.009999323636293411,0.8785550594329834,-0.4773930609226227,0.0024999999441206455,0.0,0.0,0.0,0.0024999999441206455,0.0,0.0,0.0,0.0024999999441206455,0.0,0.0,0.0,0.019999999552965164,0.0,0.0,0.0,0.019999999552965164,0.0,0.0,0.0,0.019999999552965164,-0.08319851011037827,0.243011474609375,9.75278091430664,0.03999999910593033,0.0,0.0,0.0,0.03999999910593033,0.0,0.0,0.0,0.03999999910593033
1778815290503519956,276027,1778815290474510704,imu_link,-0.01059445645660162,0.009864838793873787,0.878560483455658,-0.47740259766578674,0.0024999999441206455,0.0,0.0,0.0,0.0024999999441206455,0.0,0.0,0.0,0.0024999999441206455,0.0,0.0,0.0,0.019999999552965164,0.0,0.0,0.0,0.019999999552965164,0.0,0.0,0.0,0.019999999552965164,-0.07122749835252762,0.2537853717803955,9.799467086791992,0.03999999910593033,0.0,0.0,0.0,0.03999999910593033,0.0,0.0,0.0,0.03999999910593033
1778815290508837530,276028,1778815290479510704,imu_link,-0.01059445645660162,0.009864838793873787,0.878560483455658,-0.47740259766578674,0.0024999999441206455,0.0,0.0,0.0,0.0024999999441206455,0.0,0.0,0.0,0.0024999999441206455,0.0,0.0,0.0,0.019999999552965164,0.0,0.0,0.0,0.019999999552965164,0.0,0.0,0.0,0.019999999552965164,-0.07122749835252762,0.2537853717803955,9.799467086791992,0.03999999910593033,0.0,0.0,0.0,0.03999999910593033,0.0,0.0,0.0,0.03999999910593033
1778815290514618145,276029,1778815290484510704,imu_link,-0.01046240795403719,0.009133120067417622,0.8785709142684937,-0.47740089893341064,0.0024999999441206455,0.0,0.0,0.0,0.0024999999441206455,0.0,0.0,0.0,0.0024999999441206455,0.0,0.0,0.0,0.019999999552965164,0.0,0.0,0.0,0.019999999552965164,0.0,0.0,0.0,0.019999999552965164,-0.09397241473197937,0.25438392162323,9.742006301879883,0.03999999910593033,0.0,0.0,0.0,0.03999999910593033,0.0,0.0,0.0,0.03999999910593033
1778815290555568533,276030,1778815290539510704,imu_link,-0.005462791305035353,0.011107992380857468,0.8785567283630371,-0.47746866941452026,0.0024999999441206455,0.0,0.0,0.0,0.0024999999441206455,0.0,0.0,0.0,0.0024999999441206455,0.0,0.0,0.0,0.019999999552965164,0.0,0.0,0.0,0.019999999552965164,0.0,0.0,0.0,0.019999999552965164,-0.07422025501728058,0.2513911724090576,9.744998931884766,0.03999999910593033,0.0,0.0,0.0,0.03999999910593033,0.0,0.0,0.0,0.03999999910593033
1778815290564303168,276031,1778815290542510704,imu_link,-0.006056776270270348,0.010759744793176651,0.8785611987113953,-0.47746139764785767,0.0024999999441206455,0.0,0.0,0.0,0.0024999999441206455,0.0,0.0,0.0,0.0024999999441206455,0.0,0.0,0.0,0.019999999552965164,0.0,0.0,0.0,0.019999999552965164,0.0,0.0,0.0,0.019999999552965164,-0.08319851011037827,0.23822306096553802,9.750386238098145,0.03999999910593033,0.0,0.0,0.0,0.03999999910593033,0.0,0.0,0.0,0.03999999910593033
1778815290568107701,276032,1778815290547510704,imu_link,-0.00650235079228878,0.010534528642892838,0.878563642501831,-0.477455735206604,0.0024999999441206455,0.0,0.0,0.0,0.0024999999441206455,0.0,0.0,0.0,0.0024999999441206455,0.0,0.0,0.0,0.019999999552965164,0.0,0.0,0.0,0.019999999552965164,0.0,0.0,0.0,0.019999999552965164,-0.07960720360279083,0.24361002445220947,9.771934509277344,0.03999999910593033,0.0,0.0,0.0,0.03999999910593033,0.0,0.0,0.0,0.03999999910593033
1778815290573296807,276033,1778815290552510704,imu_link,-0.00650235079228878,0.010534528642892838,0.878563642501831,-0.477455735206604,0.0024999999441206455,0.0,0.0,0.0,0.0024999999441206455,0.0,0.0,0.0,0.0024999999441206455,0.0,0.0,0.0,0.019999999552965164,0.0,0.0,0.0,0.019999999552965164,0.0,0.0,0.0,0.019999999552965164,-0.07960720360279083,0.24361002445220947,9.771934509277344,0.03999999910593033,0.0,0.0,0.0,0.03999999910593033,0.0,0.0,0.0,0.03999999910593033
1778815290578937745,276034,1778815290557510704,imu_link,-0.007200619671493769,0.010268219746649265,0.8785662055015564,-0.4774467945098877,0.0024999999441206455,0.0,0.0,0.0,0.0024999999441206455,0.0,0.0,0.0,0.0024999999441206455,0.0,0.0,0.0,0.019999999552965164,0.0,0.0,0.0,0.019999999552965164,0.0,0.0,0.0,0.019999999552965164,-0.11192892491817474,0.2537853717803955,9.727641105651855,0.03999999910593033,0.0,0.0,0.0,0.03999999910593033,0.0,0.0,0.0,0.03999999910593033
1778815290584690394,276035,1778815290562510704,imu_link,-0.00793958455324173,0.010243983939290047,0.8785651922225952,-0.47743740677833557,0.0024999999441206455,0.0,0.0,0.0,0.0024999999441206455,0.0,0.0,0.0,0.0024999999441206455,0.0,0.0,0.0,0.019999999552965164,0.0,0.0,0.0,0.019999999552965164,0.0,0.0,0.0,0.019999999552965164,-0.06464344263076782,0.2621650695800781,9.77672290802002,0.03999999910593033,0.0,0.0,0.0,0.03999999910593033,0.0,0.0,0.0,0.03999999910593033
1778815290590423688,276036,1778815290567510704,imu_link,-0.00793958455324173,0.010243983939290047,0.8785651922225952,-0.47743740677833557,0.0024999999441206455,0.0,0.0,0.0,0.0024999999441206455,0.0,0.0,0.0,0.0024999999441206455,0.0,0.0,0.0,0.019999999552965164,0.0,0.0,0.0,0.019999999552965164,0.0,0.0,0.0,0.019999999552965164,-0.06464344263076782,0.2621650695800781,9.77672290802002,0.03999999910593033,0.0,0.0,0.0,0.03999999910593033,0.0,0.0,0.0,0.03999999910593033
1778815290615195782,276037,1778815290576510704,imu_link,-0.009329416789114475,0.009945697151124477,0.87856525182724,-0.4774186611175537,0.0024999999441206455,0.0,0.0,0.0,0.0024999999441206455,0.0,0.0,0.0,0.0024999999441206455,0.0,0.0,0.0,0.019999999552965164,0.0,0.0,0.0,0.019999999552965164,0.0,0.0,0.0,0.019999999552965164,-0.0867898091673851,0.26575639843940735,9.7605619430542,0.03999999910593033,0.0,0.0,0.0,0.03999999910593033,0.0,0.0,0.0,0.03999999910593033
1778815290621327504,276038,1778815290581510704,imu_link,-0.009329416789114475,0.009945697151124477,0.87856525182724,-0.4774186611175537,0.0024999999441206455,0.0,0.0,0.0,0.0024999999441206455,0.0,0.0,0.0,0.0024999999441206455,0.0,0.0,0.0,0.019999999552965164,0.0,0.0,0.0,0.019999999552965164,0.0,0.0,0.0,0.019999999552965164,-0.0867898091673851,0.26575639843940735,9.7605619430542,0.03999999910593033,0.0,0.0,0.0,0.03999999910593033,0.0,0.0,0.0,0.03999999910593033
1778815290626771996,276039,1778815290586510704,imu_link,-0.009879408404231071,0.009440464898943901,0.8785697221755981,-0.4774094820022583,0.0024999999441206455,0.0,0.0,0.0,0.0024999999441206455,0.0,0.0,0.0,0.0024999999441206455,0.0,0.0,0.0,0.019999999552965164,0.0,0.0,0.0,0.019999999552965164,0.0,0.0,0.0,0.019999999552965164,-0.090979665517807,0.25079262256622314,9.728240013122559,0.03999999910593033,0.0,0.0,0.0,0.03999999910593033,0.0,0.0,0.0,0.03999999910593033
1778815290649880663,276040,1778815290629510704,imu_link,-0.006527520716190338,0.006994196679443121,0.8786081075668335,-0.4774388372898102,0.0024999999441206455,0.0,0.0,0.0,0.0024999999441206455,0.0,0.0,0.0,0.0024999999441206455,0.0,0.0,0.0,0.019999999552965164,0.0,0.0,0.0,0.019999999552965164,0.0,0.0,0.0,0.019999999552965164,-0.07960720360279083,0.25019407272338867,9.770736694335938,0.03999999910593033,0.0,0.0,0.0,0.03999999910593033,0.0,0.0,0.0,0.03999999910593033
1778815290655721084,276041,1778815290632510704,imu_link,-0.00712852505967021,0.007327508646994829,0.8786032795906067,-0.4774339199066162,0.0024999999441206455,0.0,0.0,0.0,0.0024999999441206455,0.0,0.0,0.0,0.0024999999441206455,0.0,0.0,0.0,0.019999999552965164,0.0,0.0,0.0,0.019999999552965164,0.0,0.0,0.0,0.019999999552965164,-0.08499415963888168,0.24061726033687592,9.734824180603027,0.03999999910593033,0.0,0.0,0.0,0.03999999910593033,0.0,0.0,0.0,0.03999999910593033
1778815290662847104,276042,1778815290637510704,imu_link,-0.00712852505967021,0.007327508646994829,0.8786032795906067,-0.4774339199066162,0.0024999999441206455,0.0,0.0,0.0,0.0024999999441206455,0.0,0.0,0.0,0.0024999999441206455,0.0,0.0,0.0,0.019999999552965164,0.0,0.0,0.0,0.019999999552965164,0.0,0.0,0.0,0.019999999552965164,-0.08499415963888168,0.24061726033687592,9.734824180603027,0.03999999910593033,0.0,0.0,0.0,0.03999999910593033,0.0,0.0,0.0,0.03999999910593033
1778815290667899004,276043,1778815290642510704,imu_link,-0.007730762008577585,0.007769107818603516,0.87859708070755,-0.4774291217327118,0.0024999999441206455,0.0,0.0,0.0,0.0024999999441206455,0.0,0.0,0.0,0.0024999999441206455,0.0,0.0,0.0,0.019999999552965164,0.0,0.0,0.0,0.019999999552965164,0.0,0.0,0.0,0.019999999552965164,-0.08559270948171616,0.25917232036590576,9.750985145568848,0.03999999910593033,0.0,0.0,0.0,0.03999999910593033,0.0,0.0,0.0,0.03999999910593033
1778815290673316712,276044,1778815290647510704,imu_link,-0.008463775739073753,0.00787148904055357,0.8785934448242188,-0.4774215519428253,0.0024999999441206455,0.0,0.0,0.0,0.0024999999441206455,0.0,0.0,0.0,0.0024999999441206455,0.0,0.0,0.0,0.019999999552965164,0.0,0.0,0.0,0.019999999552965164,0.0,0.0,0.0,0.019999999552965164,-0.10354921966791153,0.23702596127986908,9.73781681060791,0.03999999910593033,0.0,0.0,0.0,0.03999999910593033,0.0,0.0,0.0,0.03999999910593033
1778815290679580696,276045,1778815290652510704,imu_link,-0.008463775739073753,0.00787148904055357,0.8785934448242188,-0.4774215519428253,0.0024999999441206455,0.0,0.0,0.0,0.0024999999441206455,0.0,0.0,0.0,0.0024999999441206455,0.0,0.0,0.0,0.019999999552965164,0.0,0.0,0.0,0.019999999552965164,0.0,0.0,0.0,0.019999999552965164,-0.10354921966791153,0.23702596127986908,9.73781681060791,0.03999999910593033,0.0,0.0,0.0,0.03999999910593033,0.0,0.0,0.0,0.03999999910593033
1778815290685800396,276046,1778815290657510704,imu_link,-0.009162169881165028,0.008129026740789413,0.8785878419876099,-0.47741469740867615,0.0024999999441206455,0.0,0.0,0.0,0.0024999999441206455,0.0,0.0,0.0,0.0024999999441206455,0.0,0.0,0.0,0.019999999552965164,0.0,0.0,0.0,0.019999999552965164,0.0,0.0,0.0,0.019999999552965164,-0.09576806426048279,0.2412158101797104,9.756970405578613,0.03999999910593033,0.0,0.0,0.0,0.03999999910593033,0.0,0.0,0.0,0.03999999910593033
1778815290725619829,276047,1778815290709510704,imu_link,-0.013114983215928078,0.004941862542182207,0.8785967230796814,-0.4773496985435486,0.0024999999441206455,0.0,0.0,0.0,0.0024999999441206455,0.0,0.0,0.0,0.0024999999441206455,0.0,0.0,0.0,0.019999999552965164,0.0,0.0,0.0,0.019999999552965164,0.0,0.0,0.0,0.019999999552965164,-0.08499415963888168,0.22445639967918396,9.77013874053955,0.03999999910593033,0.0,0.0,0.0,0.03999999910593033,0.0,0.0,0.0,0.03999999910593033
1778815290733923800,276048,1778815290712510704,imu_link,-0.012635576538741589,0.005431132856756449,0.878595769405365,-0.4773591458797455,0.0024999999441206455,0.0,0.0,0.0,0.0024999999441206455,0.0,0.0,0.0,0.0024999999441206455,0.0,0.0,0.0,0.019999999552965164,0.0,0.0,0.0,0.019999999552965164,0.0,0.0,0.0,0.019999999552965164,-0.08259996026754379,0.2364274114370346,9.753378868103027,0.03999999910593033,0.0,0.0,0.0,0.03999999910593033,0.0,0.0,0.0,0.03999999910593033
1778815290739371836,276049,1778815290717510704,imu_link,-0.012635576538741589,0.005431132856756449,0.878595769405365,-0.4773591458797455,0.0024999999441206455,0.0,0.0,0.0,0.0024999999441206455,0.0,0.0,0.0,0.0024999999441206455,0.0,0.0,0.0,0.019999999552965164,0.0,0.0,0.0,0.019999999552965164,0.0,0.0,0.0,0.019999999552965164,-0.08259996026754379,0.2364274114370346,9.753378868103027,0.03999999910593033,0.0,0.0,0.0,0.03999999910593033,0.0,0.0,0.0,0.03999999910593033
1778815290745304363,276050,1778815290722510704,imu_link,-0.012166772969067097,0.006012595724314451,0.8785932064056396,-0.4773690104484558,0.0024999999441206455,0.0,0.0,0.0,0.0024999999441206455,0.0,0.0,0.0,0.0024999999441206455,0.0,0.0,0.0,0.019999999552965164,0.0,0.0,0.0,0.019999999552965164,0.0,0.0,0.0,0.019999999552965164,-0.076015904545784,0.24779987335205078,9.736021041870117,0.03999999910593033,0.0,0.0,0.0,0.03999999910593033,0.0,0.0,0.0,0.03999999910593033
1778815290753747095,276051,1778815290727510704,imu_link,-0.011720702983438969,0.006604946218430996,0.8785898685455322,-0.4773784577846527,0.0024999999441206455,0.0,0.0,0.0,0.0024999999441206455,0.0,0.0,0.0,0.0024999999441206455,0.0,0.0,0.0,0.019999999552965164,0.0,0.0,0.0,0.019999999552965164,0.0,0.0,0.0,0.019999999552965164,-0.0694318488240242,0.25498247146606445,9.776124000549316,0.03999999910593033,0.0,0.0,0.0,0.03999999910593033,0.0,0.0,0.0,0.03999999910593033
1778815290759127748,276052,1778815290732510704,imu_link,-0.011720702983438969,0.006604946218430996,0.8785898685455322,-0.4773784577846527,0.0024999999441206455,0.0,0.0,0.0,0.0024999999441206455,0.0,0.0,0.0,0.0024999999441206455,0.0,0.0,0.0,0.019999999552965164,0.0,0.0,0.0,0.019999999552965164,0.0,0.0,0.0,0.019999999552965164,-0.0694318488240242,0.25498247146606445,9.776124000549316,0.03999999910593033,0.0,0.0,0.0,0.03999999910593033,0.0,0.0,0.0,0.03999999910593033
1778815290766815369,276053,1778815290737510704,imu_link,-0.011371036060154438,0.007256931159645319,0.8785846829414368,-0.4773869812488556,0.0024999999441206455,0.0,0.0,0.0,0.0024999999441206455,0.0,0.0,0.0,0.0024999999441206455,0.0,0.0,0.0,0.019999999552965164,0.0,0.0,0.0,0.019999999552965164,0.0,0.0,0.0,0.019999999552965164,-0.07422025501728058,0.2651578485965729,9.751583099365234,0.03999999910593033,0.0,0.0,0.0,0.03999999910593033,0.0,0.0,0.0,0.03999999910593033
1778815290788392400,276054,1778815290746510704,imu_link,-0.010559518821537495,0.008102222345769405,0.8785793781280518,-0.4774017333984375,0.0024999999441206455,0.0,0.0,0.0,0.0024999999441206455,0.0,0.0,0.0,0.0024999999441206455,0.0,0.0,0.0,0.019999999552965164,0.0,0.0,0.0,0.019999999552965164,0.0,0.0,0.0,0.019999999552965164,-0.07781155407428741,0.24600422382354736,9.749787330627441,0.03999999910593033,0.0,0.0,0.0,0.03999999910593033,0.0,0.0,0.0,0.03999999910593033
1778815290795231961,276055,1778815290751510704,imu_link,-0.010559518821537495,0.008102222345769405,0.8785793781280518,-0.4774017333984375,0.0024999999441206455,0.0,0.0,0.0,0.0024999999441206455,0.0,0.0,0.0,0.0024999999441206455,0.0,0.0,0.0,0.019999999552965164,0.0,0.0,0.0,0.019999999552965164,0.0,0.0,0.0,0.019999999552965164,-0.07781155407428741,0.24600422382354736,9.749787330627441,0.03999999910593033,0.0,0.0,0.0,0.03999999910593033,0.0,0.0,0.0,0.03999999910593033
1778815290817814281,276056,1778815290802510704,imu_link,-0.00841569434851408,0.012856919318437576,0.878521203994751,-0.4774470329284668,0.0024999999441206455,0.0,0.0,0.0,0.0024999999441206455,0.0,0.0,0.0,0.0024999999441206455,0.0,0.0,0.0,0.019999999552965164,0.0,0.0,0.0,0.019999999552965164,0.0,0.0,0.0,0.019999999552965164,-0.08798690885305405,0.25019407272338867,9.74021053314209,0.03999999910593033,0.0,0.0,0.0,0.03999999910593033,0.0,0.0,0.0,0.03999999910593033
1778815290823400835,276057,1778815290805510704,imu_link,-0.008561171591281891,0.012188289314508438,0.8785310387611389,-0.4774438738822937,0.0024999999441206455,0.0,0.0,0.0,0.0024999999441206455,0.0,0.0,0.0,0.0024999999441206455,0.0,0.0,0.0,0.019999999552965164,0.0,0.0,0.0,0.019999999552965164,0.0,0.0,0.0,0.019999999552965164,-0.07781155407428741,0.23762451112270355,9.770736694335938,0.03999999910593033,0.0,0.0,0.0,0.03999999910593033,0.0,0.0,0.0,0.03999999910593033
1778815290831554701,276058,1778815290810510704,imu_link,-0.008561171591281891,0.012188289314508438,0.8785310387611389,-0.4774438738822937,0.0024999999441206455,0.0,0.0,0.0,0.0024999999441206455,0.0,0.0,0.0,0.0024999999441206455,0.0,0.0,0.0,0.019999999552965164,0.0,0.0,0.0,0.019999999552965164,0.0,0.0,0.0,0.019999999552965164,-0.07781155407428741,0.23762451112270355,9.770736694335938,0.03999999910593033,0.0,0.0,0.0,0.03999999910593033,0.0,0.0,0.0,0.03999999910593033
1778815290837106719,276059,1778815290815510704,imu_link,-0.008889620192348957,0.011516982689499855,0.8785402178764343,-0.47743773460388184,0.0024999999441206455,0.0,0.0,0.0,0.0024999999441206455,0.0,0.0,0.0,0.0024999999441206455,0.0,0.0,0.0,0.019999999552965164,0.0,0.0,0.0,0.019999999552965164,0.0,0.0,0.0,0.019999999552965164,-0.08798690885305405,0.2495955228805542,9.747393608093262,0.03999999910593033,0.0,0.0,0.0,0.03999999910593033,0.0,0.0,0.0,0.03999999910593033
1778815290843119148,276060,1778815290820510704,imu_link,-0.008972862735390663,0.0107810003682971,0.8785502910614014,-0.4774346947669983,0.0024999999441206455,0.0,0.0,0.0,0.0024999999441206455,0.0,0.0,0.0,0.0024999999441206455,0.0,0.0,0.0,0.019999999552965164,0.0,0.0,0.0,0.019999999552965164,0.0,0.0,0.0,0.019999999552965164,-0.07661445438861847,0.23403321206569672,9.719860076904297,0.03999999910593033,0.0,0.0,0.0,0.03999999910593033,0.0,0.0,0.0,0.03999999910593033
1778815290848307607,276061,1778815290825510704,imu_link,-0.008972862735390663,0.0107810003682971,0.8785502910614014,-0.4774346947669983,0.0024999999441206455,0.0,0.0,0.0,0.0024999999441206455,0.0,0.0,0.0,0.0024999999441206455,0.0,0.0,0.0,0.019999999552965164,0.0,0.0,0.0,0.019999999552965164,0.0,0.0,0.0,0.019999999552965164,-0.07661445438861847,0.23403321206569672,9.719860076904297,0.03999999910593033,0.0,0.0,0.0,0.03999999910593033,0.0,0.0,0.0,0.03999999910593033
1778815290853846781,276062,1778815290830510704,imu_link,-0.00892565306276083,0.010042757727205753,0.8785603642463684,-0.4774332046508789,0.0024999999441206455,0.0,0.0,0.0,0.0024999999441206455,0.0,0.0,0.0,0.0024999999441206455,0.0,0.0,0.0,0.019999999552965164,0.0,0.0,0.0,0.019999999552965164,0.0,0.0,0.0,0.019999999552965164,-0.06464344263076782,0.2454056739807129,9.785700798034668,0.03999999910593033,0.0,0.0,0.0,0.03999999910593033,0.0,0.0,0.0,0.03999999910593033
1778815290877383358,276063,1778815290839510704,imu_link,-0.009529665112495422,0.009037959389388561,0.8785710334777832,-0.4774218797683716,0.0024999999441206455,0.0,0.0,0.0,0.0024999999441206455,0.0,0.0,0.0,0.0024999999441206455,0.0,0.0,0.0,0.019999999552965164,0.0,0.0,0.0,0.019999999552965164,0.0,0.0,0.0,0.019999999552965164,-0.09696516394615173,0.2346317619085312,9.799467086791992,0.03999999910593033,0.0,0.0,0.0,0.03999999910593033,0.0,0.0,0.0,0.03999999910593033
1778815290882943733,276064,1778815290844510704,imu_link,-0.009529665112495422,0.009037959389388561,0.8785710334777832,-0.4774218797683716,0.0024999999441206455,0.0,0.0,0.0,0.0024999999441206455,0.0,0.0,0.0,0.0024999999441206455,0.0,0.0,0.0,0.019999999552965164,0.0,0.0,0.0,0.019999999552965164,0.0,0.0,0.0,0.019999999552965164,-0.09696516394615173,0.2346317619085312,9.799467086791992,0.03999999910593033,0.0,0.0,0.0,0.03999999910593033,0.0,0.0,0.0,0.03999999910593033
1778815290888515093,276065,1778815290849510704,imu_link,-0.008826435543596745,0.008787393569946289,0.8785768747329712,-0.4774295687675476,0.0024999999441206455,0.0,0.0,0.0,0.0024999999441206455,0.0,0.0,0.0,0.0024999999441206455,0.0,0.0,0.0,0.019999999552965164,0.0,0.0,0.0,0.019999999552965164,0.0,0.0,0.0,0.019999999552965164,-0.06464344263076782,0.22744916379451752,9.749787330627441,0.03999999910593033,0.0,0.0,0.0,0.03999999910593033,0.0,0.0,0.0,0.03999999910593033
1778815290895873099,276066,1778815290854510704,imu_link,-0.0093424953520298,0.008255722001194954,0.8785811066627502,-0.477421373128891,0.0024999999441206455,0.0,0.0,0.0,0.0024999999441206455,0.0,0.0,0.0,0.0024999999441206455,0.0,0.0,0.0,0.019999999552965164,0.0,0.0,0.0,0.019999999552965164,0.0,0.0,0.0,0.019999999552965164,-0.09397241473197937,0.22625206410884857,9.792882919311523,0.03999999910593033,0.0,0.0,0.0,0.03999999910593033,0.0,0.0,0.0,0.03999999910593033
1778815290901810478,276067,1778815290859510704,imu_link,-0.0093424953520298,0.008255722001194954,0.8785811066627502,-0.477421373128891,0.0024999999441206455,0.0,0.0,0.0,0.0024999999441206455,0.0,0.0,0.0,0.0024999999441206455,0.0,0.0,0.0,0.019999999552965164,0.0,0.0,0.0,0.019999999552965164,0.0,0.0,0.0,0.019999999552965164,-0.09397241473197937,0.22625206410884857,9.792882919311523,0.03999999910593033,0.0,0.0,0.0,0.03999999910593033,0.0,0.0,0.0,0.03999999910593033
1778815290923587677,276068,1778815290909510704,imu_link,-0.013754630461335182,0.010862316936254501,0.8785203099250793,-0.4773746132850647,0.0024999999441206455,0.0,0.0,0.0,0.0024999999441206455,0.0,0.0,0.0,0.0024999999441206455,0.0,0.0,0.0,0.019999999552965164,0.0,0.0,0.0,0.019999999552965164,0.0,0.0,0.0,0.019999999552965164,-0.09935937076807022,0.2555810213088989,9.765350341796875,0.03999999910593033,0.0,0.0,0.0,0.03999999910593033,0.0,0.0,0.0,0.03999999910593033
1778815290931022762,276069,1778815290912510704,imu_link,-0.013131177984178066,0.01057945191860199,0.8785287737846375,-0.47738251090049744,0.0024999999441206455,0.0,0.0,0.0,0.0024999999441206455,0.0,0.0,0.0,0.0024999999441206455,0.0,0.0,0.0,0.019999999552965164,0.0,0.0,0.0,0.019999999552965164,0.0,0.0,0.0,0.019999999552965164,-0.08140285313129425,0.24361002445220947,9.729436874389648,0.03999999910593033,0.0,0.0,0.0,0.03999999910593033,0.0,0.0,0.0,0.03999999910593033
1778815290937179693,276070,1778815290917510704,imu_link,-0.013131177984178066,0.01057945191860199,0.8785287737846375,-0.47738251090049744,0.0024999999441206455,0.0,0.0,0.0,0.0024999999441206455,0.0,0.0,0.0,0.0024999999441206455,0.0,0.0,0.0,0.019999999552965164,0.0,0.0,0.0,0.019999999552965164,0.0,0.0,0.0,0.019999999552965164,-0.08140285313129425,0.24361002445220947,9.729436874389648,0.03999999910593033,0.0,0.0,0.0,0.03999999910593033,0.0,0.0,0.0,0.03999999910593033
1778815290942806809,276071,1778815290922510704,imu_link,-0.012470202520489693,0.010232496075332165,0.8785383105278015,-0.47739046812057495,0.0024999999441206455,0.0,0.0,0.0,0.0024999999441206455,0.0,0.0,0.0,0.0024999999441206455,0.0,0.0,0.0,0.019999999552965164,0.0,0.0,0.0,0.019999999552965164,0.0,0.0,0.0,0.019999999552965164,-0.09157821536064148,0.2513911724090576,9.750985145568848,0.03999999910593033,0.0,0.0,0.0,0.03999999910593033,0.0,0.0,0.0,0.03999999910593033
1778815290948821960,276072,1778815290927510704,imu_link,-0.011829598806798458,0.009859370067715645,0.8785475492477417,-0.4773976504802704,0.0024999999441206455,0.0,0.0,0.0,0.0024999999441206455,0.0,0.0,0.0,0.0024999999441206455,0.0,0.0,0.0,0.019999999552965164,0.0,0.0,0.0,0.019999999552965164,0.0,0.0,0.0,0.019999999552965164,-0.08499415963888168,0.2364274114370346,9.749189376831055,0.03999999910593033,0.0,0.0,0.0,0.03999999910593033,0.0,0.0,0.0,0.03999999910593033
1778815290954165409,276073,1778815290932510704,imu_link,-0.011829598806798458,0.009859370067715645,0.8785475492477417,-0.4773976504802704,0.0024999999441206455,0.0,0.0,0.0,0.0024999999441206455,0.0,0.0,0.0,0.0024999999441206455,0.0,0.0,0.0,0.019999999552965164,0.0,0.0,0.0,0.019999999552965164,0.0,0.0,0.0,0.019999999552965164,-0.08499415963888168,0.2364274114370346,9.749189376831055,0.03999999910593033,0.0,0.0,0.0,0.03999999910593033,0.0,0.0,0.0,0.03999999910593033
1778815290961190588,276074,1778815290937510704,imu_link,-0.011231780052185059,0.009423943236470222,0.8785569071769714,-0.47740358114242554,0.0024999999441206455,0.0,0.0,0.0,0.0024999999441206455,0.0,0.0,0.0,0.0024999999441206455,0.0,0.0,0.0,0.019999999552965164,0.0,0.0,0.0,0.019999999552965164,0.0,0.0,0.0,0.019999999552965164,-0.08319851011037827,0.22086510062217712,9.765948295593262,0.03999999910593033,0.0,0.0,0.0,0.03999999910593033,0.0,0.0,0.0,0.03999999910593033
1778815290984684659,276075,1778815290946510704,imu_link,-0.010635376907885075,0.008416466414928436,0.8785732388496399,-0.47740599513053894,0.0024999999441206455,0.0,0.0,0.0,0.0024999999441206455,0.0,0.0,0.0,0.0024999999441206455,0.0,0.0,0.0,0.019999999552965164,0.0,0.0,0.0,0.019999999552965164,0.0,0.0,0.0,0.019999999552965164,-0.104147769510746,0.24061726033687592,9.786299705505371,0.03999999910593033,0.0,0.0,0.0,0.03999999910593033,0.0,0.0,0.0,0.03999999910593033
1778815290991001490,276076,1778815290951510704,imu_link,-0.010635376907885075,0.008416466414928436,0.8785732388496399,-0.47740599513053894,0.0024999999441206455,0.0,0.0,0.0,0.0024999999441206455,0.0,0.0,0.0,0.0024999999441206455,0.0,0.0,0.0,0.019999999552965164,0.0,0.0,0.0,0.019999999552965164,0.0,0.0,0.0,0.019999999552965164,-0.104147769510746,0.24061726033687592,9.786299705505371,0.03999999910593033,0.0,0.0,0.0,0.03999999910593033,0.0,0.0,0.0,0.03999999910593033
1778815290998945324,276077,1778815290956510704,imu_link,-0.011317380703985691,0.00871914904564619,0.8785656094551086,-0.47739899158477783,0.0024999999441206455,0.0,0.0,0.0,0.0024999999441206455,0.0,0.0,0.0,0.0024999999441206455,0.0,0.0,0.0,0.019999999552965164,0.0,0.0,0.0,0.019999999552965164,0.0,0.0,0.0,0.019999999552965164,-0.10654197633266449,0.24660277366638184,9.73781681060791,0.03999999910593033,0.0,0.0,0.0,0.03999999910593033,0.0,0.0,0.0,0.03999999910593033
1778815291004172919,276078,1778815290961510704,imu_link,-0.0106736421585083,0.009077551774680614,0.8785644173622131,-0.47740936279296875,0.0024999999441206455,0.0,0.0,0.0,0.0024999999441206455,0.0,0.0,0.0,0.0024999999441206455,0.0,0.0,0.0,0.019999999552965164,0.0,0.0,0.0,0.019999999552965164,0.0,0.0,0.0,0.019999999552965164,-0.08559270948171616,0.25438392162323,9.722254753112793,0.03999999910593033,0.0,0.0,0.0,0.03999999910593033,0.0,0.0,0.0,0.03999999910593033
1778815291009681981,276079,1778815290966510704,imu_link,-0.0106736421585083,0.009077551774680614,0.8785644173622131,-0.47740936279296875,0.0024999999441206455,0.0,0.0,0.0,0.0024999999441206455,0.0,0.0,0.0,0.0024999999441206455,0.0,0.0,0.0,0.019999999552965164,0.0,0.0,0.0,0.019999999552965164,0.0,0.0,0.0,0.019999999552965164,-0.08559270948171616,0.25438392162323,9.722254753112793,0.03999999910593033,0.0,0.0,0.0,0.03999999910593033,0.0,0.0,0.0,0.03999999910593033
1778815291033945178,276080,1778815291017510704,imu_link,-0.008157134987413883,0.004493584856390953,0.8786250352859497,-0.4774125814437866,0.0024999999441206455,0.0,0.0,0.0,0.0024999999441206455,0.0,0.0,0.0,0.0024999999441206455,0.0,0.0,0.0,0.019999999552965164,0.0,0.0,0.0,0.019999999552965164,0.0,0.0,0.0,0.019999999552965164,-0.09816227108240128,0.23044191300868988,9.73781681060791,0.03999999910593033,0.0,0.0,0.0,0.03999999910593033,0.0,0.0,0.0,0.03999999910593033
1778815291039736925,276081,1778815291020510704,imu_link,-0.008469054475426674,0.005102186463773251,0.8786184787750244,-0.4774130880832672,0.0024999999441206455,0.0,0.0,0.0,0.0024999999441206455,0.0,0.0,0.0,0.0024999999441206455,0.0,0.0,0.0,0.019999999552965164,0.0,0.0,0.0,0.019999999552965164,0.0,0.0,0.0,0.019999999552965164,-0.09516951441764832,0.26815059781074524,9.749787330627441,0.03999999910593033,0.0,0.0,0.0,0.03999999910593033,0.0,0.0,0.0,0.03999999910593033
1778815291045937048,276082,1778815291025510704,imu_link,-0.008672840893268585,0.00555899553000927,0.8786134719848633,-0.4774135649204254,0.0024999999441206455,0.0,0.0,0.0,0.0024999999441206455,0.0,0.0,0.0,0.0024999999441206455,0.0,0.0,0.0,0.019999999552965164,0.0,0.0,0.0,0.019999999552965164,0.0,0.0,0.0,0.019999999552965164,-0.09157821536064148,0.24241292476654053,9.742006301879883,0.03999999910593033,0.0,0.0,0.0,0.03999999910593033,0.0,0.0,0.0,0.03999999910593033
1778815291050952797,276083,1778815291030510704,imu_link,-0.008672840893268585,0.00555899553000927,0.8786134719848633,-0.4774135649204254,0.0024999999441206455,0.0,0.0,0.0,0.0024999999441206455,0.0,0.0,0.0,0.0024999999441206455,0.0,0.0,0.0,0.019999999552965164,0.0,0.0,0.0,0.019999999552965164,0.0,0.0,0.0,0.019999999552965164,-0.09157821536064148,0.24241292476654053,9.742006301879883,0.03999999910593033,0.0,0.0,0.0,0.03999999910593033,0.0,0.0,0.0,0.03999999910593033
1778815291056391797,276084,1778815291035510704,imu_link,-0.009033282287418842,0.006209882907569408,0.8786055445671082,-0.4774133861064911,0.0024999999441206455,0.0,0.0,0.0,0.0024999999441206455,0.0,0.0,0.0,0.0024999999441206455,0.0,0.0,0.0,0.019999999552965164,0.0,0.0,0.0,0.019999999552965164,0.0,0.0,0.0,0.019999999552965164,-0.0975637212395668,0.243011474609375,9.766547203063965,0.03999999910593033,0.0,0.0,0.0,0.03999999910593033,0.0,0.0,0.0,0.03999999910593033
1778815291063945366,276085,1778815291040510704,imu_link,-0.00914410687983036,0.006938969250768423,0.8785975575447083,-0.4774157702922821,0.0024999999441206455,0.0,0.0,0.0,0.0024999999441206455,0.0,0.0,0.0,0.0024999999441206455,0.0,0.0,0.0,0.019999999552965164,0.0,0.0,0.0,0.019999999552965164,0.0,0.0,0.0,0.019999999552965164,-0.07242459803819656,0.25917232036590576,9.764751434326172,0.03999999910593033,0.0,0.0,0.0,0.03999999910593033,0.0,0.0,0.0,0.03999999910593033
1778815291069420464,276086,1778815291045510704,imu_link,-0.00914410687983036,0.006938969250768423,0.8785975575447083,-0.4774157702922821,0.0024999999441206455,0.0,0.0,0.0,0.0024999999441206455,0.0,0.0,0.0,0.0024999999441206455,0.0,0.0,0.0,0.019999999552965164,0.0,0.0,0.0,0.019999999552965164,0.0,0.0,0.0,0.019999999552965164,-0.07242459803819656,0.25917232036590576,9.764751434326172,0.03999999910593033,0.0,0.0,0.0,0.03999999910593033,0.0,0.0,0.0,0.03999999910593033
1778815291091448737,276087,1778815291054510704,imu_link,-0.009812986478209496,0.008113939315080643,0.8785812258720398,-0.47741419076919556,0.0024999999441206455,0.0,0.0,0.0,0.0024999999441206455,0.0,0.0,0.0,0.0024999999441206455,0.0,0.0,0.0,0.019999999552965164,0.0,0.0,0.0,0.019999999552965164,0.0,0.0,0.0,0.019999999552965164,-0.08559270948171616,0.2519897222518921,9.757569313049316,0.03999999910593033,0.0,0.0,0.0,0.03999999910593033,0.0,0.0,0.0,0.03999999910593033
1778815291100462805,276088,1778815291059510704,imu_link,-0.009812986478209496,0.008113939315080643,0.8785812258720398,-0.47741419076919556,0.0024999999441206455,0.0,0.0,0.0,0.0024999999441206455,0.0,0.0,0.0,0.0024999999441206455,0.0,0.0,0.0,0.019999999552965164,0.0,0.0,0.0,0.019999999552965164,0.0,0.0,0.0,0.019999999552965164,-0.08559270948171616,0.2519897222518921,9.757569313049316,0.03999999910593033,0.0,0.0,0.0,0.03999999910593033,0.0,0.0,0.0,0.03999999910593033
1778815291105342556,276089,1778815291064510704,imu_link,-0.009691224433481693,0.008850408717989922,0.8785728812217712,-0.4774189889431,0.0024999999441206455,0.0,0.0,0.0,0.0024999999441206455,0.0,0.0,0.0,0.0024999999441206455,0.0,0.0,0.0,0.019999999552965164,0.0,0.0,0.0,0.019999999552965164,0.0,0.0,0.0,0.019999999552965164,-0.07781155407428741,0.2495955228805542,9.75397777557373,0.03999999910593033,0.0,0.0,0.0,0.03999999910593033,0.0,0.0,0.0,0.03999999910593033
1778815291111030984,276090,1778815291069510704,imu_link,-0.010110524483025074,0.009459396824240685,0.8785633444786072,-0.4774162769317627,0.0024999999441206455,0.0,0.0,0.0,0.0024999999441206455,0.0,0.0,0.0,0.0024999999441206455,0.0,0.0,0.0,0.019999999552965164,0.0,0.0,0.0,0.019999999552965164,0.0,0.0,0.0,0.019999999552965164,-0.08499415963888168,0.25498247146606445,9.741408348083496,0.03999999910593033,0.0,0.0,0.0,0.03999999910593033,0.0,0.0,0.0,0.03999999910593033
1778815291135260900,276091,1778815291113510704,imu_link,-0.006398879457265139,0.007925906218588352,0.8785925507545471,-0.4774544835090637,0.0024999999441206455,0.0,0.0,0.0,0.0024999999441206455,0.0,0.0,0.0,0.0024999999441206455,0.0,0.0,0.0,0.019999999552965164,0.0,0.0,0.0,0.019999999552965164,0.0,0.0,0.0,0.019999999552965164,-0.07302314788103104,0.24181437492370605,9.784503936767578,0.03999999910593033,0.0,0.0,0.0,0.03999999910593033,0.0,0.0,0.0,0.03999999910593033
1778815291140461894,276092,1778815291116510704,imu_link,-0.007016853895038366,0.008225888013839722,0.8785881996154785,-0.4774487614631653,0.0024999999441206455,0.0,0.0,0.0,0.0024999999441206455,0.0,0.0,0.0,0.0024999999441206455,0.0,0.0,0.0,0.019999999552965164,0.0,0.0,0.0,0.019999999552965164,0.0,0.0,0.0,0.019999999552965164,-0.06643909960985184,0.23822306096553802,9.753378868103027,0.03999999910593033,0.0,0.0,0.0,0.03999999910593033,0.0,0.0,0.0,0.03999999910593033
1778815291146045235,276093,1778815291121510704,imu_link,-0.007016853895038366,0.008225888013839722,0.8785881996154785,-0.4774487614631653,0.0024999999441206455,0.0,0.0,0.0,0.0024999999441206455,0.0,0.0,0.0,0.0024999999441206455,0.0,0.0,0.0,0.019999999552965164,0.0,0.0,0.0,0.019999999552965164,0.0,0.0,0.0,0.019999999552965164,-0.06643909960985184,0.23822306096553802,9.753378868103027,0.03999999910593033,0.0,0.0,0.0,0.03999999910593033,0.0,0.0,0.0,0.03999999910593033
1778815291151708349,276094,1778815291126510704,imu_link,-0.007737310137599707,0.008415252901613712,0.8785843849182129,-0.4774414598941803,0.0024999999441206455,0.0,0.0,0.0,0.0024999999441206455,0.0,0.0,0.0,0.0024999999441206455,0.0,0.0,0.0,0.019999999552965164,0.0,0.0,0.0,0.019999999552965164,0.0,0.0,0.0,0.019999999552965164,-0.076015904545784,0.23702596127986908,9.765350341796875,0.03999999910593033,0.0,0.0,0.0,0.03999999910593033,0.0,0.0,0.0,0.03999999910593033
1778815291157942360,276095,1778815291131510704,imu_link,-0.008462471887469292,0.008282085880637169,0.8785834908485413,-0.47743287682533264,0.0024999999441206455,0.0,0.0,0.0,0.0024999999441206455,0.0,0.0,0.0,0.0024999999441206455,0.0,0.0,0.0,0.019999999552965164,0.0,0.0,0.0,0.019999999552965164,0.0,0.0,0.0,0.019999999552965164,-0.07960720360279083,0.22505494952201843,9.77372932434082,0.03999999910593033,0.0,0.0,0.0,0.03999999910593033,0.0,0.0,0.0,0.03999999910593033
1778815291164703894,276096,1778815291136510704,imu_link,-0.008462471887469292,0.008282085880637169,0.8785834908485413,-0.47743287682533264,0.0024999999441206455,0.0,0.0,0.0,0.0024999999441206455,0.0,0.0,0.0,0.0024999999441206455,0.0,0.0,0.0,0.019999999552965164,0.0,0.0,0.0,0.019999999552965164,0.0,0.0,0.0,0.019999999552965164,-0.07960720360279083,0.22505494952201843,9.77372932434082,0.03999999910593033,0.0,0.0,0.0,0.03999999910593033,0.0,0.0,0.0,0.03999999910593033
1778815291173354075,276097,1778815291141510704,imu_link,-0.009204921312630177,0.008333280682563782,0.8785802125930786,-0.4774245619773865,0.0024999999441206455,0.0,0.0,0.0,0.0024999999441206455,0.0,0.0,0.0,0.0024999999441206455,0.0,0.0,0.0,0.019999999552965164,0.0,0.0,0.0,0.019999999552965164,0.0,0.0,0.0,0.019999999552965164,-0.0999579206109047,0.2412158101797104,9.75397777557373,0.03999999910593033,0.0,0.0,0.0,0.03999999910593033,0.0,0.0,0.0,0.03999999910593033
1778815291197363916,276098,1778815291150510704,imu_link,-0.008812516927719116,0.007233100477606058,0.8785939812660217,-0.4774242639541626,0.0024999999441206455,0.0,0.0,0.0,0.0024999999441206455,0.0,0.0,0.0,0.0024999999441206455,0.0,0.0,0.0,0.019999999552965164,0.0,0.0,0.0,0.019999999552965164,0.0,0.0,0.0,0.019999999552965164,-0.0802057534456253,0.22744916379451752,9.740809440612793,0.03999999910593033,0.0,0.0,0.0,0.03999999910593033,0.0,0.0,0.0,0.03999999910593033
1778815291203169769,276099,1778815291155510704,imu_link,-0.008812516927719116,0.007233100477606058,0.8785939812660217,-0.4774242639541626,0.0024999999441206455,0.0,0.0,0.0,0.0024999999441206455,0.0,0.0,0.0,0.0024999999441206455,0.0,0.0,0.0,0.019999999552965164,0.0,0.0,0.0,0.019999999552965164,0.0,0.0,0.0,0.019999999552965164,-0.0802057534456253,0.22744916379451752,9.740809440612793,0.03999999910593033,0.0,0.0,0.0,0.03999999910593033,0.0,0.0,0.0,0.03999999910593033
1778815291224414658,276100,1778815291233246507,imu_link,-0.007904733531177044,0.012372324243187904,0.8785316944122314,-0.4774494171142578,0.0024999999441206455,0.0,0.0,0.0,0.0024999999441206455,0.0,0.0,0.0,0.0024999999441206455,0.0,0.0,0.0,0.019999999552965164,0.0,0.0,0.0,0.019999999552965164,0.0,0.0,0.0,0.019999999552965164,-0.04967968538403511,0.24899697303771973,9.759364128112793,0.03999999910593033,0.0,0.0,0.0,0.03999999910593033,0.0,0.0,0.0,0.03999999910593033
1778815291232388106,276101,1778815291236246507,imu_link,-0.008126574568450451,0.011722210794687271,0.8785408139228821,-0.47744542360305786,0.0024999999441206455,0.0,0.0,0.0,0.0024999999441206455,0.0,0.0,0.0,0.0024999999441206455,0.0,0.0,0.0,0.019999999552965164,0.0,0.0,0.0,0.019999999552965164,0.0,0.0,0.0,0.019999999552965164,-0.07182604819536209,0.2388216108083725,9.77133560180664,0.03999999910593033,0.0,0.0,0.0,0.03999999910593033,0.0,0.0,0.0,0.03999999910593033
1778815291237673549,276102,1778815291241246507,imu_link,-0.008126574568450451,0.011722210794687271,0.8785408139228821,-0.47744542360305786,0.0024999999441206455,0.0,0.0,0.0,0.0024999999441206455,0.0,0.0,0.0,0.0024999999441206455,0.0,0.0,0.0,0.019999999552965164,0.0,0.0,0.0,0.019999999552965164,0.0,0.0,0.0,0.019999999552965164,-0.07182604819536209,0.2388216108083725,9.77133560180664,0.03999999910593033,0.0,0.0,0.0,0.03999999910593033,0.0,0.0,0.0,0.03999999910593033
1778815291242991919,276103,1778815291246246507,imu_link,-0.008547117933630943,0.011107994243502617,0.8785485029220581,-0.4774383306503296,0.0024999999441206455,0.0,0.0,0.0,0.0024999999441206455,0.0,0.0,0.0,0.0024999999441206455,0.0,0.0,0.0,0.019999999552965164,0.0,0.0,0.0,0.019999999552965164,0.0,0.0,0.0,0.019999999552965164,-0.07481880486011505,0.2537853717803955,9.752182006835938,0.03999999910593033,0.0,0.0,0.0,0.03999999910593033,0.0,0.0,0.0,0.03999999910593033
1778815291248947887,276104,1778815291251246507,imu_link,-0.008942746557295322,0.010486184619367123,0.8785560131072998,-0.47743135690689087,0.0024999999441206455,0.0,0.0,0.0,0.0024999999441206455,0.0,0.0,0.0,0.0024999999441206455,0.0,0.0,0.0,0.019999999552965164,0.0,0.0,0.0,0.019999999552965164,0.0,0.0,0.0,0.019999999552965164,-0.10295066982507706,0.23582886159420013,9.719860076904297,0.03999999910593033,0.0,0.0,0.0,0.03999999910593033,0.0,0.0,0.0,0.03999999910593033
1778815291254729415,276105,1778815291256246507,imu_link,-0.008942746557295322,0.010486184619367123,0.8785560131072998,-0.47743135690689087,0.0024999999441206455,0.0,0.0,0.0,0.0024999999441206455,0.0,0.0,0.0,0.0024999999441206455,0.0,0.0,0.0,0.019999999552965164,0.0,0.0,0.0,0.019999999552965164,0.0,0.0,0.0,0.019999999552965164,-0.10295066982507706,0.23582886159420013,9.719860076904297,0.03999999910593033,0.0,0.0,0.0,0.03999999910593033,0.0,0.0,0.0,0.03999999910593033
1778815291263957832,276106,1778815291261246507,imu_link,-0.009519664570689201,0.010016355663537979,0.878560483455658,-0.4774220883846283,0.0024999999441206455,0.0,0.0,0.0,0.0024999999441206455,0.0,0.0,0.0,0.0024999999441206455,0.0,0.0,0.0,0.019999999552965164,0.0,0.0,0.0,0.019999999552965164,0.0,0.0,0.0,0.019999999552965164,-0.10354921966791153,0.25318682193756104,9.721056938171387,0.03999999910593033,0.0,0.0,0.0,0.03999999910593033,0.0,0.0,0.0,0.03999999910593033
1778815291285226070,276107,1778815291270246507,imu_link,-0.01007312536239624,0.00898729544132948,0.8785716891288757,-0.4774107038974762,0.0024999999441206455,0.0,0.0,0.0,0.0024999999441206455,0.0,0.0,0.0,0.0024999999441206455,0.0,0.0,0.0,0.019999999552965164,0.0,0.0,0.0,0.019999999552965164,0.0,0.0,0.0,0.019999999552965164,-0.10055647045373917,0.24001871049404144,9.743204116821289,0.03999999910593033,0.0,0.0,0.0,0.03999999910593033,0.0,0.0,0.0,0.03999999910593033
1778815291308033588,276108,1778815291312246507,imu_link,-0.006747678853571415,0.007112996652722359,0.8786042332649231,-0.47744089365005493,0.0024999999441206455,0.0,0.0,0.0,0.0024999999441206455,0.0,0.0,0.0,0.0024999999441206455,0.0,0.0,0.0,0.019999999552965164,0.0,0.0,0.0,0.019999999552965164,0.0,0.0,0.0,0.019999999552965164,-0.0802057534456253,0.23403321206569672,9.762357711791992,0.03999999910593033,0.0,0.0,0.0,0.03999999910593033,0.0,0.0,0.0,0.03999999910593033
1778815291313967437,276109,1778815291315246507,imu_link,-0.00722366850823164,0.007610488682985306,0.8785982131958008,-0.4774375557899475,0.0024999999441206455,0.0,0.0,0.0,0.0024999999441206455,0.0,0.0,0.0,0.0024999999441206455,0.0,0.0,0.0,0.019999999552965164,0.0,0.0,0.0,0.019999999552965164,0.0,0.0,0.0,0.019999999552965164,-0.06703764945268631,0.2495955228805542,9.738415718078613,0.03999999910593033,0.0,0.0,0.0,0.03999999910593033,0.0,0.0,0.0,0.03999999910593033
1778815291319622948,276110,1778815291320246507,imu_link,-0.00722366850823164,0.007610488682985306,0.8785982131958008,-0.4774375557899475,0.0024999999441206455,0.0,0.0,0.0,0.0024999999441206455,0.0,0.0,0.0,0.0024999999441206455,0.0,0.0,0.0,0.019999999552965164,0.0,0.0,0.0,0.019999999552965164,0.0,0.0,0.0,0.019999999552965164,-0.06703764945268631,0.2495955228805542,9.738415718078613,0.03999999910593033,0.0,0.0,0.0,0.03999999910593033,0.0,0.0,0.0,0.03999999910593033
1778815291324884907,276111,1778815291325246507,imu_link,-0.007826730608940125,0.008046524599194527,0.8785918951034546,-0.4774324595928192,0.0024999999441206455,0.0,0.0,0.0,0.0024999999441206455,0.0,0.0,0.0,0.0024999999441206455,0.0,0.0,0.0,0.019999999552965164,0.0,0.0,0.0,0.019999999552965164,0.0,0.0,0.0,0.019999999552965164,-0.08140285313129425,0.25737667083740234,9.779715538024902,0.03999999910593033,0.0,0.0,0.0,0.03999999910593033,0.0,0.0,0.0,0.03999999910593033
1778815291332808628,276112,1778815291330246507,imu_link,-0.008563314564526081,0.008036511018872261,0.8785895109176636,-0.4774243235588074,0.0024999999441206455,0.0,0.0,0.0,0.0024999999441206455,0.0,0.0,0.0,0.0024999999441206455,0.0,0.0,0.0,0.019999999552965164,0.0,0.0,0.0,0.019999999552965164,0.0,0.0,0.0,0.019999999552965164,-0.09217676520347595,0.228047713637352,9.745597839355469,0.03999999910593033,0.0,0.0,0.0,0.03999999910593033,0.0,0.0,0.0,0.03999999910593033
1778815291339480003,276113,1778815291335246507,imu_link,-0.008563314564526081,0.008036511018872261,0.8785895109176636,-0.4774243235588074,0.0024999999441206455,0.0,0.0,0.0,0.0024999999441206455,0.0,0.0,0.0,0.0024999999441206455,0.0,0.0,0.0,0.019999999552965164,0.0,0.0,0.0,0.019999999552965164,0.0,0.0,0.0,0.019999999552965164,-0.09217676520347595,0.228047713637352,9.745597839355469,0.03999999910593033,0.0,0.0,0.0,0.03999999910593033,0.0,0.0,0.0,0.03999999910593033
1778815291345828363,276114,1778815291340246507,imu_link,-0.009076546877622604,0.008575046434998512,0.8785814046859741,-0.477420449256897,0.0024999999441206455,0.0,0.0,0.0,0.0024999999441206455,0.0,0.0,0.0,0.0024999999441206455,0.0,0.0,0.0,0.019999999552965164,0.0,0.0,0.0,0.019999999552965164,0.0,0.0,0.0,0.019999999552965164,-0.08140285313129425,0.25258827209472656,9.758766174316406,0.03999999910593033,0.0,0.0,0.0,0.03999999910593033,0.0,0.0,0.0,0.03999999910593033
1778815291370386702,276115,1778815291349246507,imu_link,-0.008842776529490948,0.009718784131109715,0.878568172454834,-0.47742733359336853,0.0024999999441206455,0.0,0.0,0.0,0.0024999999441206455,0.0,0.0,0.0,0.0024999999441206455,0.0,0.0,0.0,0.019999999552965164,0.0,0.0,0.0,0.019999999552965164,0.0,0.0,0.0,0.019999999552965164,-0.05925649031996727,0.2519897222518921,9.7791166305542,0.03999999910593033,0.0,0.0,0.0,0.03999999910593033,0.0,0.0,0.0,0.03999999910593033
1778815291390823945,276116,1778815291402246507,imu_link,-0.012235138565301895,0.0061585488729178905,0.8785922527313232,-0.4773670732975006,0.0024999999441206455,0.0,0.0,0.0,0.0024999999441206455,0.0,0.0,0.0,0.0024999999441206455,0.0,0.0,0.0,0.019999999552965164,0.0,0.0,0.0,0.019999999552965164,0.0,0.0,0.0,0.019999999552965164,-0.10235211998224258,0.23523031175136566,9.73661994934082,0.03999999910593033,0.0,0.0,0.0,0.03999999910593033,0.0,0.0,0.0,0.03999999910593033
1778815291399950840,276117,1778815291405246507,imu_link,-0.011662459000945091,0.006539981346577406,0.878592312335968,-0.47737643122673035,0.0024999999441206455,0.0,0.0,0.0,0.0024999999441206455,0.0,0.0,0.0,0.0024999999441206455,0.0,0.0,0.0,0.019999999552965164,0.0,0.0,0.0,0.019999999552965164,0.0,0.0,0.0,0.019999999552965164,-0.09576806426048279,0.22445639967918396,9.744998931884766,0.03999999910593033,0.0,0.0,0.0,0.03999999910593033,0.0,0.0,0.0,0.03999999910593033
1778815291404496673,276118,1778815291410246507,imu_link,-0.011662459000945091,0.006539981346577406,0.878592312335968,-0.47737643122673035,0.0024999999441206455,0.0,0.0,0.0,0.0024999999441206455,0.0,0.0,0.0,0.0024999999441206455,0.0,0.0,0.0,0.019999999552965164,0.0,0.0,0.0,0.019999999552965164,0.0,0.0,0.0,0.019999999552965164,-0.09576806426048279,0.22445639967918396,9.744998931884766,0.03999999910593033,0.0,0.0,0.0,0.03999999910593033,0.0,0.0,0.0,0.03999999910593033
1778815291409651176,276119,1778815291415246507,imu_link,-0.011070954613387585,0.0069892811588943005,0.8785911798477173,-0.4773861765861511,0.0024999999441206455,0.0,0.0,0.0,0.0024999999441206455,0.0,0.0,0.0,0.0024999999441206455,0.0,0.0,0.0,0.019999999552965164,0.0,0.0,0.0,0.019999999552965164,0.0,0.0,0.0,0.019999999552965164,-0.08319851011037827,0.22924481332302094,9.750985145568848,0.03999999910593033,0.0,0.0,0.0,0.03999999910593033,0.0,0.0,0.0,0.03999999910593033
1778815291415519434,276120,1778815291420246507,imu_link,-0.01123025082051754,0.007708961144089699,0.878581702709198,-0.47738882899284363,0.0024999999441206455,0.0,0.0,0.0,0.0024999999441206455,0.0,0.0,0.0,0.0024999999441206455,0.0,0.0,0.0,0.019999999552965164,0.0,0.0,0.0,0.019999999552965164,0.0,0.0,0.0,0.019999999552965164,-0.11252747476100922,0.2651578485965729,9.750985145568848,0.03999999910593033,0.0,0.0,0.0,0.03999999910593033,0.0,0.0,0.0,0.03999999910593033
1778815291421905945,276121,1778815291425246507,imu_link,-0.01123025082051754,0.007708961144089699,0.878581702709198,-0.47738882899284363,0.0024999999441206455,0.0,0.0,0.0,0.0024999999441206455,0.0,0.0,0.0,0.0024999999441206455,0.0,0.0,0.0,0.019999999552965164,0.0,0.0,0.0,0.019999999552965164,0.0,0.0,0.0,0.019999999552965164,-0.11252747476100922,0.2651578485965729,9.750985145568848,0.03999999910593033,0.0,0.0,0.0,0.03999999910593033,0.0,0.0,0.0,0.03999999910593033
1778815291428699503,276122,1778815291430246507,imu_link,-0.010687596164643764,0.0082178246229887,0.8785786628723145,-0.47739842534065247,0.0024999999441206455,0.0,0.0,0.0,0.0024999999441206455,0.0,0.0,0.0,0.0024999999441206455,0.0,0.0,0.0,0.019999999552965164,0.0,0.0,0.0,0.019999999552965164,0.0,0.0,0.0,0.019999999552965164,-0.06404489278793335,0.2513911724090576,9.746196746826172,0.03999999910593033,0.0,0.0,0.0,0.03999999910593033,0.0,0.0,0.0,0.03999999910593033
1778815291451416247,276123,1778815291439246507,imu_link,-0.00952009204775095,0.008140872232615948,0.8785853385925293,-0.47741207480430603,0.0024999999441206455,0.0,0.0,0.0,0.0024999999441206455,0.0,0.0,0.0,0.0024999999441206455,0.0,0.0,0.0,0.019999999552965164,0.0,0.0,0.0,0.019999999552965164,0.0,0.0,0.0,0.019999999552965164,-0.09935937076807022,0.23582886159420013,9.753378868103027,0.03999999910593033,0.0,0.0,0.0,0.03999999910593033,0.0,0.0,0.0,0.03999999910593033
1778815291473754927,276124,1778815291484246507,imu_link,-0.011118642054498196,0.01193283498287201,0.8785264492034912,-0.4774063527584076,0.0024999999441206455,0.0,0.0,0.0,0.0024999999441206455,0.0,0.0,0.0,0.0024999999441206455,0.0,0.0,0.0,0.019999999552965164,0.0,0.0,0.0,0.019999999552965164,0.0,0.0,0.0,0.019999999552965164,-0.08379705995321274,0.26396071910858154,9.749787330627441,0.03999999910593033,0.0,0.0,0.0,0.03999999910593033,0.0,0.0,0.0,0.03999999910593033
1778815291478906264,276125,1778815291487246507,imu_link,-0.010887030512094498,0.011291136033833027,0.8785372376441956,-0.4774072468280792,0.0024999999441206455,0.0,0.0,0.0,0.0024999999441206455,0.0,0.0,0.0,0.0024999999441206455,0.0,0.0,0.0,0.019999999552965164,0.0,0.0,0.0,0.019999999552965164,0.0,0.0,0.0,0.019999999552965164,-0.09038111567497253,0.2346317619085312,9.731232643127441,0.03999999910593033,0.0,0.0,0.0,0.03999999910593033,0.0,0.0,0.0,0.03999999910593033
1778815291485130807,276126,1778815291492246507,imu_link,-0.010887030512094498,0.011291136033833027,0.8785372376441956,-0.4774072468280792,0.0024999999441206455,0.0,0.0,0.0,0.0024999999441206455,0.0,0.0,0.0,0.0024999999441206455,0.0,0.0,0.0,0.019999999552965164,0.0,0.0,0.0,0.019999999552965164,0.0,0.0,0.0,0.019999999552965164,-0.09038111567497253,0.2346317619085312,9.731232643127441,0.03999999910593033,0.0,0.0,0.0,0.03999999910593033,0.0,0.0,0.0,0.03999999910593033
1778815291490354416,276127,1778815291497246507,imu_link,-0.011018420569598675,0.010558534413576126,0.8785476088523865,-0.47740209102630615,0.0024999999441206455,0.0,0.0,0.0,0.0024999999441206455,0.0,0.0,0.0,0.0024999999441206455,0.0,0.0,0.0,0.019999999552965164,0.0,0.0,0.0,0.019999999552965164,0.0,0.0,0.0,0.019999999552965164,-0.10055647045373917,0.2717418968677521,9.767146110534668,0.03999999910593033,0.0,0.0,0.0,0.03999999910593033,0.0,0.0,0.0,0.03999999910593033
1778815291498130615,276128,1778815291502246507,imu_link,-0.01040093693882227,0.010155636817216873,0.8785560727119446,-0.4774090349674225,0.0024999999441206455,0.0,0.0,0.0,0.0024999999441206455,0.0,0.0,0.0,0.0024999999441206455,0.0,0.0,0.0,0.019999999552965164,0.0,0.0,0.0,0.019999999552965164,0.0,0.0,0.0,0.019999999552965164,-0.07841010391712189,0.2609679698944092,9.733627319335938,0.03999999910593033,0.0,0.0,0.0,0.03999999910593033,0.0,0.0,0.0,0.03999999910593033
1778815291504192823,276129,1778815291507246507,imu_link,-0.01040093693882227,0.010155636817216873,0.8785560727119446,-0.4774090349674225,0.0024999999441206455,0.0,0.0,0.0,0.0024999999441206455,0.0,0.0,0.0,0.0024999999441206455,0.0,0.0,0.0,0.019999999552965164,0.0,0.0,0.0,0.019999999552965164,0.0,0.0,0.0,0.019999999552965164,-0.07841010391712189,0.2609679698944092,9.733627319335938,0.03999999910593033,0.0,0.0,0.0,0.03999999910593033,0.0,0.0,0.0,0.03999999910593033
1778815291510072033,276130,1778815291512246507,imu_link,-0.009827196598052979,0.009678014554083347,0.8785649538040161,-0.4774148166179657,0.0024999999441206455,0.0,0.0,0.0,0.0024999999441206455,0.0,0.0,0.0,0.0024999999441206455,0.0,0.0,0.0,0.019999999552965164,0.0,0.0,0.0,0.019999999552965164,0.0,0.0,0.0,0.019999999552965164,-0.07481880486011505,0.24839842319488525,9.707290649414062,0.03999999910593033,0.0,0.0,0.0,0.03999999910593033,0.0,0.0,0.0,0.03999999910593033
1778815291535236314,276131,1778815291521246507,imu_link,-0.010529461316764355,0.008740986697375774,0.8785738348960876,-0.47740140557289124,0.0024999999441206455,0.0,0.0,0.0,0.0024999999441206455,0.0,0.0,0.0,0.0024999999441206455,0.0,0.0,0.0,0.019999999552965164,0.0,0.0,0.0,0.019999999552965164,0.0,0.0,0.0,0.019999999552965164,-0.10714052617549896,0.24420857429504395,9.751583099365234,0.03999999910593033,0.0,0.0,0.0,0.03999999910593033,0.0,0.0,0.0,0.03999999910593033
1778815291540955878,276132,1778815291526246507,imu_link,-0.010529461316764355,0.008740986697375774,0.8785738348960876,-0.47740140557289124,0.0024999999441206455,0.0,0.0,0.0,0.0024999999441206455,0.0,0.0,0.0,0.0024999999441206455,0.0,0.0,0.0,0.019999999552965164,0.0,0.0,0.0,0.019999999552965164,0.0,0.0,0.0,0.019999999552965164,-0.10714052617549896,0.24420857429504395,9.751583099365234,0.03999999910593033,0.0,0.0,0.0,0.03999999910593033,0.0,0.0,0.0,0.03999999910593033
1778815291564392160,276133,1778815291567246507,imu_link,-0.01190408319234848,0.012725109234452248,0.8785085082054138,-0.47739994525909424,0.0024999999441206455,0.0,0.0,0.0,0.0024999999441206455,0.0,0.0,0.0,0.0024999999441206455,0.0,0.0,0.0,0.019999999552965164,0.0,0.0,0.0,0.019999999552965164,0.0,0.0,0.0,0.019999999552965164,-0.0975637212395668,0.2561795711517334,9.742605209350586,0.03999999910593033,0.0,0.0,0.0,0.03999999910593033,0.0,0.0,0.0,0.03999999910593033
1778815291569837398,276134,1778815291570246507,imu_link,-0.01166039239615202,0.012086677365005016,0.8785200715065002,-0.47740110754966736,0.0024999999441206455,0.0,0.0,0.0,0.0024999999441206455,0.0,0.0,0.0,0.0024999999441206455,0.0,0.0,0.0,0.019999999552965164,0.0,0.0,0.0,0.019999999552965164,0.0,0.0,0.0,0.019999999552965164,-0.09935937076807022,0.22685061395168304,9.763554573059082,0.03999999910593033,0.0,0.0,0.0,0.03999999910593033,0.0,0.0,0.0,0.03999999910593033
1778815291574927322,276135,1778815291575246507,imu_link,-0.01166039239615202,0.012086677365005016,0.8785200715065002,-0.47740110754966736,0.0024999999441206455,0.0,0.0,0.0,0.0024999999441206455,0.0,0.0,0.0,0.0024999999441206455,0.0,0.0,0.0,0.019999999552965164,0.0,0.0,0.0,0.019999999552965164,0.0,0.0,0.0,0.019999999552965164,-0.09935937076807022,0.22685061395168304,9.763554573059082,0.03999999910593033,0.0,0.0,0.0,0.03999999910593033,0.0,0.0,0.0,0.03999999910593033
1778815291580777344,276136,1778815291580246507,imu_link,-0.011487438343465328,0.011364803649485111,0.8785322904586792,-0.477400541305542,0.0024999999441206455,0.0,0.0,0.0,0.0024999999441206455,0.0,0.0,0.0,0.0024999999441206455,0.0,0.0,0.0,0.019999999552965164,0.0,0.0,0.0,0.019999999552965164,0.0,0.0,0.0,0.019999999552965164,-0.10773907601833344,0.23942016065120697,9.746794700622559,0.03999999910593033,0.0,0.0,0.0,0.03999999910593033,0.0,0.0,0.0,0.03999999910593033
1778815291587495145,276137,1778815291585246507,imu_link,-0.011411279439926147,0.010629547759890556,0.8785438537597656,-0.47739818692207336,0.0024999999441206455,0.0,0.0,0.0,0.0024999999441206455,0.0,0.0,0.0,0.0024999999441206455,0.0,0.0,0.0,0.019999999552965164,0.0,0.0,0.0,0.019999999552965164,0.0,0.0,0.0,0.019999999552965164,-0.10714052617549896,0.26396071910858154,9.765948295593262,0.03999999910593033,0.0,0.0,0.0,0.03999999910593033,0.0,0.0,0.0,0.03999999910593033
1778815291593010967,276138,1778815291590246507,imu_link,-0.011411279439926147,0.010629547759890556,0.8785438537597656,-0.47739818692207336,0.0024999999441206455,0.0,0.0,0.0,0.0024999999441206455,0.0,0.0,0.0,0.0024999999441206455,0.0,0.0,0.0,0.019999999552965164,0.0,0.0,0.0,0.019999999552965164,0.0,0.0,0.0,0.019999999552965164,-0.10714052617549896,0.26396071910858154,9.765948295593262,0.03999999910593033,0.0,0.0,0.0,0.03999999910593033,0.0,0.0,0.0,0.03999999910593033
1778815291600698607,276139,1778815291595246507,imu_link,-0.011033708229660988,0.009984998032450676,0.8785549998283386,-0.47740045189857483,0.0024999999441206455,0.0,0.0,0.0,0.0024999999441206455,0.0,0.0,0.0,0.0024999999441206455,0.0,0.0,0.0,0.019999999552965164,0.0,0.0,0.0,0.019999999552965164,0.0,0.0,0.0,0.019999999552965164,-0.09516951441764832,0.25258827209472656,9.721056938171387,0.03999999910593033,0.0,0.0,0.0,0.03999999910593033,0.0,0.0,0.0,0.03999999910593033
1778815291622214355,276140,1778815291604246507,imu_link,-0.009991232305765152,0.009452654980123043,0.8785669803619385,-0.4774121046066284,0.0024999999441206455,0.0,0.0,0.0,0.0024999999441206455,0.0,0.0,0.0,0.0024999999441206455,0.0,0.0,0.0,0.019999999552965164,0.0,0.0,0.0,0.019999999552965164,0.0,0.0,0.0,0.019999999552965164,-0.0628477931022644,0.2256534993648529,9.771934509277344,0.03999999910593033,0.0,0.0,0.0,0.03999999910593033,0.0,0.0,0.0,0.03999999910593033
1778815291645559252,276141,1778815291649246507,imu_link,-0.012553485110402107,0.0062324306927621365,0.8785907626152039,-0.47736087441444397,0.0024999999441206455,0.0,0.0,0.0,0.0024999999441206455,0.0,0.0,0.0,0.0024999999441206455,0.0,0.0,0.0,0.019999999552965164,0.0,0.0,0.0,0.019999999552965164,0.0,0.0,0.0,0.019999999552965164,-0.09876082092523575,0.24839842319488525,9.747992515563965,0.03999999910593033,0.0,0.0,0.0,0.03999999910593033,0.0,0.0,0.0,0.03999999910593033
1778815291651199026,276142,1778815291652246507,imu_link,-0.012019307352602482,0.0066602700389921665,0.8785898685455322,-0.4773702919483185,0.0024999999441206455,0.0,0.0,0.0,0.0024999999441206455,0.0,0.0,0.0,0.0024999999441206455,0.0,0.0,0.0,0.019999999552965164,0.0,0.0,0.0,0.019999999552965164,0.0,0.0,0.0,0.019999999552965164,-0.10354921966791153,0.23403321206569672,9.777320861816406,0.03999999910593033,0.0,0.0,0.0,0.03999999910593033,0.0,0.0,0.0,0.03999999910593033
1778815291657009580,276143,1778815291657246507,imu_link,-0.012019307352602482,0.0066602700389921665,0.8785898685455322,-0.4773702919483185,0.0024999999441206455,0.0,0.0,0.0,0.0024999999441206455,0.0,0.0,0.0,0.0024999999441206455,0.0,0.0,0.0,0.019999999552965164,0.0,0.0,0.0,0.019999999552965164,0.0,0.0,0.0,0.019999999552965164,-0.10354921966791153,0.23403321206569672,9.777320861816406,0.03999999910593033,0.0,0.0,0.0,0.03999999910593033,0.0,0.0,0.0,0.03999999910593033
1778815291664498594,276144,1778815291662246507,imu_link,-0.01140773668885231,0.007076869253069162,0.8785892724990845,-0.47738027572631836,0.0024999999441206455,0.0,0.0,0.0,0.0024999999441206455,0.0,0.0,0.0,0.0024999999441206455,0.0,0.0,0.0,0.019999999552965164,0.0,0.0,0.0,0.019999999552965164,0.0,0.0,0.0,0.019999999552965164,-0.10055647045373917,0.2298433631658554,9.725845336914062,0.03999999910593033,0.0,0.0,0.0,0.03999999910593033,0.0,0.0,0.0,0.03999999910593033
1778815291670217236,276145,1778815291667246507,imu_link,-0.011234719306230545,0.007797078229486942,0.8785817623138428,-0.4773869514465332,0.0024999999441206455,0.0,0.0,0.0,0.0024999999441206455,0.0,0.0,0.0,0.0024999999441206455,0.0,0.0,0.0,0.019999999552965164,0.0,0.0,0.0,0.019999999552965164,0.0,0.0,0.0,0.019999999552965164,-0.09935937076807022,0.26156651973724365,9.762357711791992,0.03999999910593033,0.0,0.0,0.0,0.03999999910593033,0.0,0.0,0.0,0.03999999910593033
1778815291675894822,276146,1778815291672246507,imu_link,-0.011234719306230545,0.007797078229486942,0.8785817623138428,-0.4773869514465332,0.0024999999441206455,0.0,0.0,0.0,0.0024999999441206455,0.0,0.0,0.0,0.0024999999441206455,0.0,0.0,0.0,0.019999999552965164,0.0,0.0,0.0,0.019999999552965164,0.0,0.0,0.0,0.019999999552965164,-0.09935937076807022,0.26156651973724365,9.762357711791992,0.03999999910593033,0.0,0.0,0.0,0.03999999910593033,0.0,0.0,0.0,0.03999999910593033
1778815291682718721,276147,1778815291677246507,imu_link,-0.010839537717401981,0.008430901914834976,0.8785762786865234,-0.47739559412002563,0.0024999999441206455,0.0,0.0,0.0,0.0024999999441206455,0.0,0.0,0.0,0.0024999999441206455,0.0,0.0,0.0,0.019999999552965164,0.0,0.0,0.0,0.019999999552965164,0.0,0.0,0.0,0.019999999552965164,-0.08140285313129425,0.2603694200515747,9.758766174316406,0.03999999910593033,0.0,0.0,0.0,0.03999999910593033,0.0,0.0,0.0,0.03999999910593033
1778815291721525188,276148,1778815291732246507,imu_link,-0.006119721569120884,0.011024070903658867,0.8785568475723267,-0.4774623513221741,0.0024999999441206455,0.0,0.0,0.0,0.0024999999441206455,0.0,0.0,0.0,0.0024999999441206455,0.0,0.0,0.0,0.019999999552965164,0.0,0.0,0.0,0.019999999552965164,0.0,0.0,0.0,0.019999999552965164,-0.07841010391712189,0.24600422382354736,9.767146110534668,0.03999999910593033,0.0,0.0,0.0,0.03999999910593033,0.0,0.0,0.0,0.03999999910593033
1778815291728084165,276149,1778815291735246507,imu_link,-0.006718220189213753,0.010686073452234268,0.8785607814788818,-0.47745463252067566,0.0024999999441206455,0.0,0.0,0.0,0.0024999999441206455,0.0,0.0,0.0,0.0024999999441206455,0.0,0.0,0.0,0.019999999552965164,0.0,0.0,0.0,0.019999999552965164,0.0,0.0,0.0,0.019999999552965164,-0.08439560979604721,0.2454056739807129,9.782708168029785,0.03999999910593033,0.0,0.0,0.0,0.03999999910593033,0.0,0.0,0.0,0.03999999910593033
1778815291734323664,276150,1778815291740246507,imu_link,-0.006718220189213753,0.010686073452234268,0.8785607814788818,-0.47745463252067566,0.0024999999441206455,0.0,0.0,0.0,0.0024999999441206455,0.0,0.0,0.0,0.0024999999441206455,0.0,0.0,0.0,0.019999999552965164,0.0,0.0,0.0,0.019999999552965164,0.0,0.0,0.0,0.019999999552965164,-0.08439560979604721,0.2454056739807129,9.782708168029785,0.03999999910593033,0.0,0.0,0.0,0.03999999910593033,0.0,0.0,0.0,0.03999999910593033
1778815291740515531,276151,1778815291745246507,imu_link,-0.00740261934697628,0.01040483359247446,0.8785635232925415,-0.47744566202163696,0.0024999999441206455,0.0,0.0,0.0,0.0024999999441206455,0.0,0.0,0.0,0.0024999999441206455,0.0,0.0,0.0,0.019999999552965164,0.0,0.0,0.0,0.019999999552965164,0.0,0.0,0.0,0.019999999552965164,-0.0975637212395668,0.25498247146606445,9.765948295593262,0.03999999910593033,0.0,0.0,0.0,0.03999999910593033,0.0,0.0,0.0,0.03999999910593033
1778815291746141784,276152,1778815291750246507,imu_link,-0.00813323725014925,0.010284371674060822,0.878563642501831,-0.4774360656738281,0.0024999999441206455,0.0,0.0,0.0,0.0024999999441206455,0.0,0.0,0.0,0.0024999999441206455,0.0,0.0,0.0,0.019999999552965164,0.0,0.0,0.0,0.019999999552965164,0.0,0.0,0.0,0.019999999552965164,-0.08559270948171616,0.2663549482822418,9.74021053314209,0.03999999910593033,0.0,0.0,0.0,0.03999999910593033,0.0,0.0,0.0,0.03999999910593033
1778815291753834414,276153,1778815291755246507,imu_link,-0.008558420464396477,0.01002022810280323,0.8785660862922668,-0.47742998600006104,0.0024999999441206455,0.0,0.0,0.0,0.0024999999441206455,0.0,0.0,0.0,0.0024999999441206455,0.0,0.0,0.0,0.019999999552965164,0.0,0.0,0.0,0.019999999552965164,0.0,0.0,0.0,0.019999999552965164,-0.07302314788103104,0.2495955228805542,9.723451614379883,0.03999999910593033,0.0,0.0,0.0,0.03999999910593033,0.0,0.0,0.0,0.03999999910593033
1778815291760444599,276154,1778815291760246507,imu_link,-0.008558420464396477,0.01002022810280323,0.8785660862922668,-0.47742998600006104,0.0024999999441206455,0.0,0.0,0.0,0.0024999999441206455,0.0,0.0,0.0,0.0024999999441206455,0.0,0.0,0.0,0.019999999552965164,0.0,0.0,0.0,0.019999999552965164,0.0,0.0,0.0,0.019999999552965164,-0.07302314788103104,0.2495955228805542,9.723451614379883,0.03999999910593033,0.0,0.0,0.0,0.03999999910593033,0.0,0.0,0.0,0.03999999910593033
1778815291784085728,276155,1778815291769246507,imu_link,-0.00929365772753954,0.00901765190064907,0.8785764575004578,-0.4774169623851776,0.0024999999441206455,0.0,0.0,0.0,0.0024999999441206455,0.0,0.0,0.0,0.0024999999441206455,0.0,0.0,0.0,0.019999999552965164,0.0,0.0,0.0,0.019999999552965164,0.0,0.0,0.0,0.019999999552965164,-0.08499415963888168,0.22625206410884857,9.739612579345703,0.03999999910593033,0.0,0.0,0.0,0.03999999910593033,0.0,0.0,0.0,0.03999999910593033
1778815291789892180,276156,1778815291774246507,imu_link,-0.00929365772753954,0.00901765190064907,0.8785764575004578,-0.4774169623851776,0.0024999999441206455,0.0,0.0,0.0,0.0024999999441206455,0.0,0.0,0.0,0.0024999999441206455,0.0,0.0,0.0,0.019999999552965164,0.0,0.0,0.0,0.019999999552965164,0.0,0.0,0.0,0.019999999552965164,-0.08499415963888168,0.22625206410884857,9.739612579345703,0.03999999910593033,0.0,0.0,0.0,0.03999999910593033,0.0,0.0,0.0,0.03999999910593033
1778815291813194686,276157,1778815291823246507,imu_link,-0.012219244614243507,0.00495800469070673,0.8786043524742126,-0.4773591458797455,0.0024999999441206455,0.0,0.0,0.0,0.0024999999441206455,0.0,0.0,0.0,0.0024999999441206455,0.0,0.0,0.0,0.019999999552965164,0.0,0.0,0.0,0.019999999552965164,0.0,0.0,0.0,0.019999999552965164,-0.10235211998224258,0.228047713637352,9.749189376831055,0.03999999910593033,0.0,0.0,0.0,0.03999999910593033,0.0,0.0,0.0,0.03999999910593033
1778815291818611693,276158,1778815291826246507,imu_link,-0.011810170486569405,0.005509593989700079,0.8786020278930664,-0.4773678779602051,0.0024999999441206455,0.0,0.0,0.0,0.0024999999441206455,0.0,0.0,0.0,0.0024999999441206455,0.0,0.0,0.0,0.019999999552965164,0.0,0.0,0.0,0.019999999552965164,0.0,0.0,0.0,0.019999999552965164,-0.10714052617549896,0.22505494952201843,9.758167266845703,0.03999999910593033,0.0,0.0,0.0,0.03999999910593033,0.0,0.0,0.0,0.03999999910593033
1778815291824387172,276159,1778815291831246507,imu_link,-0.011810170486569405,0.005509593989700079,0.8786020278930664,-0.4773678779602051,0.0024999999441206455,0.0,0.0,0.0,0.0024999999441206455,0.0,0.0,0.0,0.0024999999441206455,0.0,0.0,0.0,0.019999999552965164,0.0,0.0,0.0,0.019999999552965164,0.0,0.0,0.0,0.019999999552965164,-0.10714052617549896,0.22505494952201843,9.758167266845703,0.03999999910593033,0.0,0.0,0.0,0.03999999910593033,0.0,0.0,0.0,0.03999999910593033
1778815291832443745,276160,1778815291836246507,imu_link,-0.011448829434812069,0.006156673189252615,0.8785978555679321,-0.4773765802383423,0.0024999999441206455,0.0,0.0,0.0,0.0024999999441206455,0.0,0.0,0.0,0.0024999999441206455,0.0,0.0,0.0,0.019999999552965164,0.0,0.0,0.0,0.019999999552965164,0.0,0.0,0.0,0.019999999552965164,-0.08738835901021957,0.24480712413787842,9.75397777557373,0.03999999910593033,0.0,0.0,0.0,0.03999999910593033,0.0,0.0,0.0,0.03999999910593033
1778815291837898560,276161,1778815291841246507,imu_link,-0.01099343877285719,0.00674012303352356,0.8785943984985352,-0.4773855209350586,0.0024999999441206455,0.0,0.0,0.0,0.0024999999441206455,0.0,0.0,0.0,0.0024999999441206455,0.0,0.0,0.0,0.019999999552965164,0.0,0.0,0.0,0.019999999552965164,0.0,0.0,0.0,0.019999999552965164,-0.07960720360279083,0.23822306096553802,9.761159896850586,0.03999999910593033,0.0,0.0,0.0,0.03999999910593033,0.0,0.0,0.0,0.03999999910593033
1778815291843841245,276162,1778815291846246507,imu_link,-0.01099343877285719,0.00674012303352356,0.8785943984985352,-0.4773855209350586,0.0024999999441206455,0.0,0.0,0.0,0.0024999999441206455,0.0,0.0,0.0,0.0024999999441206455,0.0,0.0,0.0,0.019999999552965164,0.0,0.0,0.0,0.019999999552965164,0.0,0.0,0.0,0.019999999552965164,-0.07960720360279083,0.23822306096553802,9.761159896850586,0.03999999910593033,0.0,0.0,0.0,0.03999999910593033,0.0,0.0,0.0,0.03999999910593033
1778815291849741533,276163,1778815291851246507,imu_link,-0.01095697283744812,0.00748620368540287,0.8785860538482666,-0.4773905575275421,0.0024999999441206455,0.0,0.0,0.0,0.0024999999441206455,0.0,0.0,0.0,0.0024999999441206455,0.0,0.0,0.0,0.019999999552965164,0.0,0.0,0.0,0.019999999552965164,0.0,0.0,0.0,0.019999999552965164,-0.10295066982507706,0.2555810213088989,9.758766174316406,0.03999999910593033,0.0,0.0,0.0,0.03999999910593033,0.0,0.0,0.0,0.03999999910593033
1778815291874589399,276164,1778815291860246507,imu_link,-0.010820369236171246,0.008649195544421673,0.8785726428031921,-0.47739890217781067,0.0024999999441206455,0.0,0.0,0.0,0.0024999999441206455,0.0,0.0,0.0,0.0024999999441206455,0.0,0.0,0.0,0.019999999552965164,0.0,0.0,0.0,0.019999999552965164,0.0,0.0,0.0,0.019999999552965164,-0.0933738648891449,0.2651578485965729,9.745597839355469,0.03999999910593033,0.0,0.0,0.0,0.03999999910593033,0.0,0.0,0.0,0.03999999910593033
1778815291898456120,276165,1778815291901246507,imu_link,-0.008953111246228218,0.01186002604663372,0.8785355687141418,-0.47743669152259827,0.0024999999441206455,0.0,0.0,0.0,0.0024999999441206455,0.0,0.0,0.0,0.0024999999441206455,0.0,0.0,0.0,0.019999999552965164,0.0,0.0,0.0,0.019999999552965164,0.0,0.0,0.0,0.019999999552965164,-0.0802057534456253,0.26336216926574707,9.729436874389648,0.03999999910593033,0.0,0.0,0.0,0.03999999910593033,0.0,0.0,0.0,0.03999999910593033
1778815291903378070,276166,1778815291904246507,imu_link,-0.009198361076414585,0.011218457482755184,0.878544270992279,-0.4774315655231476,0.0024999999441206455,0.0,0.0,0.0,0.0024999999441206455,0.0,0.0,0.0,0.0024999999441206455,0.0,0.0,0.0,0.019999999552965164,0.0,0.0,0.0,0.019999999552965164,0.0,0.0,0.0,0.019999999552965164,-0.07781155407428741,0.2555810213088989,9.712079048156738,0.03999999910593033,0.0,0.0,0.0,0.03999999910593033,0.0,0.0,0.0,0.03999999910593033
1778815291908792308,276167,1778815291909246507,imu_link,-0.009198361076414585,0.011218457482755184,0.878544270992279,-0.4774315655231476,0.0024999999441206455,0.0,0.0,0.0,0.0024999999441206455,0.0,0.0,0.0,0.0024999999441206455,0.0,0.0,0.0,0.019999999552965164,0.0,0.0,0.0,0.019999999552965164,0.0,0.0,0.0,0.019999999552965164,-0.07781155407428741,0.2555810213088989,9.712079048156738,0.03999999910593033,0.0,0.0,0.0,0.03999999910593033,0.0,0.0,0.0,0.03999999910593033
1778815291914304574,276168,1778815291914246507,imu_link,-0.00925894919782877,0.010480467230081558,0.8785543441772461,-0.4774285554885864,0.0024999999441206455,0.0,0.0,0.0,0.0024999999441206455,0.0,0.0,0.0,0.0024999999441206455,0.0,0.0,0.0,0.019999999552965164,0.0,0.0,0.0,0.019999999552965164,0.0,0.0,0.0,0.019999999552965164,-0.08559270948171616,0.22864626348018646,9.756970405578613,0.03999999910593033,0.0,0.0,0.0,0.03999999910593033,0.0,0.0,0.0,0.03999999910593033
1778815291919963328,276169,1778815291919246507,imu_link,-0.009413192048668861,0.009756786748766899,0.8785634636878967,-0.4774240553379059,0.0024999999441206455,0.0,0.0,0.0,0.0024999999441206455,0.0,0.0,0.0,0.0024999999441206455,0.0,0.0,0.0,0.019999999552965164,0.0,0.0,0.0,0.019999999552965164,0.0,0.0,0.0,0.019999999552965164,-0.076015904545784,0.24839842319488525,9.750386238098145,0.03999999910593033,0.0,0.0,0.0,0.03999999910593033,0.0,0.0,0.0,0.03999999910593033
1778815291926042148,276170,1778815291924246507,imu_link,-0.009413192048668861,0.009756786748766899,0.8785634636878967,-0.4774240553379059,0.0024999999441206455,0.0,0.0,0.0,0.0024999999441206455,0.0,0.0,0.0,0.0024999999441206455,0.0,0.0,0.0,0.019999999552965164,0.0,0.0,0.0,0.019999999552965164,0.0,0.0,0.0,0.019999999552965164,-0.076015904545784,0.24839842319488525,9.750386238098145,0.03999999910593033,0.0,0.0,0.0,0.03999999910593033,0.0,0.0,0.0,0.03999999910593033
1778815291934556977,276171,1778815291929246507,imu_link,-0.009852265007793903,0.009152417071163654,0.8785696029663086,-0.4774160385131836,0.0024999999441206455,0.0,0.0,0.0,0.0024999999441206455,0.0,0.0,0.0,0.0024999999441206455,0.0,0.0,0.0,0.019999999552965164,0.0,0.0,0.0,0.019999999552965164,0.0,0.0,0.0,0.019999999552965164,-0.0802057534456253,0.25019407272338867,9.748590469360352,0.03999999910593033,0.0,0.0,0.0,0.03999999910593033,0.0,0.0,0.0,0.03999999910593033
1778815291956744921,276172,1778815291938246507,imu_link,-0.010904384776949883,0.008645156398415565,0.8785709738731384,-0.4774000942707062,0.0024999999441206455,0.0,0.0,0.0,0.0024999999441206455,0.0,0.0,0.0,0.0024999999441206455,0.0,0.0,0.0,0.019999999552965164,0.0,0.0,0.0,0.019999999552965164,0.0,0.0,0.0,0.019999999552965164,-0.11192892491817474,0.25019407272338867,9.758167266845703,0.03999999910593033,0.0,0.0,0.0,0.03999999910593033,0.0,0.0,0.0,0.03999999910593033
1778815291964983004,276173,1778815291943246507,imu_link,-0.010904384776949883,0.008645156398415565,0.8785709738731384,-0.4774000942707062,0.0024999999441206455,0.0,0.0,0.0,0.0024999999441206455,0.0,0.0,0.0,0.0024999999441206455,0.0,0.0,0.0,0.019999999552965164,0.0,0.0,0.0,0.019999999552965164,0.0,0.0,0.0,0.019999999552965164,-0.11192892491817474,0.25019407272338867,9.758167266845703,0.03999999910593033,0.0,0.0,0.0,0.03999999910593033,0.0,0.0,0.0,0.03999999910593033
1778815291985644881,276174,1778815291989246507,imu_link,-0.007749119307845831,0.012150995433330536,0.8785334825515747,-0.477454274892807,0.0024999999441206455,0.0,0.0,0.0,0.0024999999441206455,0.0,0.0,0.0,0.0024999999441206455,0.0,0.0,0.0,0.019999999552965164,0.0,0.0,0.0,0.019999999552965164,0.0,0.0,0.0,0.019999999552965164,-0.09636661410331726,0.2537853717803955,9.767744064331055,0.03999999910593033,0.0,0.0,0.0,0.03999999910593033,0.0,0.0,0.0,0.03999999910593033
1778815291991164812,276175,1778815291992246507,imu_link,-0.008209745399653912,0.011641144752502441,0.8785401582717896,-0.4774470031261444,0.0024999999441206455,0.0,0.0,0.0,0.0024999999441206455,0.0,0.0,0.0,0.0024999999441206455,0.0,0.0,0.0,0.019999999552965164,0.0,0.0,0.0,0.019999999552965164,0.0,0.0,0.0,0.019999999552965164,-0.09397241473197937,0.25438392162323,9.75397777557373,0.03999999910593033,0.0,0.0,0.0,0.03999999910593033,0.0,0.0,0.0,0.03999999910593033
1778815291998738070,276176,1778815291997246507,imu_link,-0.008209745399653912,0.011641144752502441,0.8785401582717896,-0.4774470031261444,0.0024999999441206455,0.0,0.0,0.0,0.0024999999441206455,0.0,0.0,0.0,0.0024999999441206455,0.0,0.0,0.0,0.019999999552965164,0.0,0.0,0.0,0.019999999552965164,0.0,0.0,0.0,0.019999999552965164,-0.09397241473197937,0.25438392162323,9.75397777557373,0.03999999910593033,0.0,0.0,0.0,0.03999999910593033,0.0,0.0,0.0,0.03999999910593033
1778815292004217939,276177,1778815292002246507,imu_link,-0.008527012541890144,0.0109714325517416,0.8785488605499268,-0.47744128108024597,0.0024999999441206455,0.0,0.0,0.0,0.0024999999441206455,0.0,0.0,0.0,0.0024999999441206455,0.0,0.0,0.0,0.019999999552965164,0.0,0.0,0.0,0.019999999552965164,0.0,0.0,0.0,0.019999999552965164,-0.0652419924736023,0.2519897222518921,9.75278091430664,0.03999999910593033,0.0,0.0,0.0,0.03999999910593033,0.0,0.0,0.0,0.03999999910593033
1778815292009953598,276178,1778815292007246507,imu_link,-0.008847384713590145,0.010303625836968422,0.8785570859909058,-0.47743526101112366,0.0024999999441206455,0.0,0.0,0.0,0.0024999999441206455,0.0,0.0,0.0,0.0024999999441206455,0.0,0.0,0.0,0.019999999552965164,0.0,0.0,0.0,0.019999999552965164,0.0,0.0,0.0,0.019999999552965164,-0.0802057534456253,0.24061726033687592,9.729436874389648,0.03999999910593033,0.0,0.0,0.0,0.03999999910593033,0.0,0.0,0.0,0.03999999910593033
1778815292015320647,276179,1778815292012246507,imu_link,-0.008847384713590145,0.010303625836968422,0.8785570859909058,-0.47743526101112366,0.0024999999441206455,0.0,0.0,0.0,0.0024999999441206455,0.0,0.0,0.0,0.0024999999441206455,0.0,0.0,0.0,0.019999999552965164,0.0,0.0,0.0,0.019999999552965164,0.0,0.0,0.0,0.019999999552965164,-0.0802057534456253,0.24061726033687592,9.729436874389648,0.03999999910593033,0.0,0.0,0.0,0.03999999910593033,0.0,0.0,0.0,0.03999999910593033
1778815292022517596,276180,1778815292017246507,imu_link,-0.00913876574486494,0.009615491144359112,0.8785651922225952,-0.4774293303489685,0.0024999999441206455,0.0,0.0,0.0,0.0024999999441206455,0.0,0.0,0.0,0.0024999999441206455,0.0,0.0,0.0,0.019999999552965164,0.0,0.0,0.0,0.019999999552965164,0.0,0.0,0.0,0.019999999552965164,-0.08439560979604721,0.23702596127986908,9.779715538024902,0.03999999910593033,0.0,0.0,0.0,0.03999999910593033,0.0,0.0,0.0,0.03999999910593033
1778815292046048119,276181,1778815292026246507,imu_link,-0.01001520361751318,0.008839660324156284,0.8785715103149414,-0.4774150848388672,0.0024999999441206455,0.0,0.0,0.0,0.0024999999441206455,0.0,0.0,0.0,0.0024999999441206455,0.0,0.0,0.0,0.019999999552965164,0.0,0.0,0.0,0.019999999552965164,0.0,0.0,0.0,0.019999999552965164,-0.10055647045373917,0.24241292476654053,9.758766174316406,0.03999999910593033,0.0,0.0,0.0,0.03999999910593033,0.0,0.0,0.0,0.03999999910593033
1778815292070246073,276182,1778815292073246507,imu_link,-0.012991378083825111,0.011957267299294472,0.8785105347633362,-0.47738754749298096,0.0024999999441206455,0.0,0.0,0.0,0.0024999999441206455,0.0,0.0,0.0,0.0024999999441206455,0.0,0.0,0.0,0.019999999552965164,0.0,0.0,0.0,0.019999999552965164,0.0,0.0,0.0,0.019999999552965164,-0.090979665517807,0.25079262256622314,9.761758804321289,0.03999999910593033,0.0,0.0,0.0,0.03999999910593033,0.0,0.0,0.0,0.03999999910593033
1778815292075396790,276183,1778815292076246507,imu_link,-0.01260039396584034,0.011389823630452156,0.8785220384597778,-0.47739070653915405,0.0024999999441206455,0.0,0.0,0.0,0.0024999999441206455,0.0,0.0,0.0,0.0024999999441206455,0.0,0.0,0.0,0.019999999552965164,0.0,0.0,0.0,0.019999999552965164,0.0,0.0,0.0,0.019999999552965164,-0.10354921966791153,0.25258827209472656,9.75278091430664,0.03999999910593033,0.0,0.0,0.0,0.03999999910593033,0.0,0.0,0.0,0.03999999910593033
1778815292081212345,276184,1778815292081246507,imu_link,-0.01260039396584034,0.011389823630452156,0.8785220384597778,-0.47739070653915405,0.0024999999441206455,0.0,0.0,0.0,0.0024999999441206455,0.0,0.0,0.0,0.0024999999441206455,0.0,0.0,0.0,0.019999999552965164,0.0,0.0,0.0,0.019999999552965164,0.0,0.0,0.0,0.019999999552965164,-0.10354921966791153,0.25258827209472656,9.75278091430664,0.03999999910593033,0.0,0.0,0.0,0.03999999910593033,0.0,0.0,0.0,0.03999999910593033
