%time,field.header.seq,field.header.stamp,field.header.frame_id,field.orientation.x,field.orientation.y,field.orientation.z,field.orientation.w,field.orientation_covariance0,field.orientation_covariance1,field.orientation_covariance2,field.orientation_covariance3,field.orientation_covariance4,field.orientation_covariance5,field.orientation_covariance6,field.orientation_covariance7,field.orientation_covariance8,field.angular_velocity.x,field.angular_velocity.y,field.angular_velocity.z,field.angular_velocity_covariance0,field.angular_velocity_covariance1,field.angular_velocity_covariance2,field.angular_velocity_covariance3,field.angular_velocity_covariance4,field.angular_velocity_covariance5,field.angular_velocity_covariance6,field.angular_velocity_covariance7,field.angular_velocity_covariance8,field.linear_acceleration.x,field.linear_acceleration.y,field.linear_acceleration.z,field.linear_acceleration_covariance0,field.linear_acceleration_covariance1,field.linear_acceleration_covariance2,field.linear_acceleration_covariance3,field.linear_acceleration_covariance4,field.linear_acceleration_covariance5,field.linear_acceleration_covariance6,field.linear_acceleration_covariance7,field.linear_acceleration_covariance8
1779691676002522013,382714,1779691675845547626,imu_link,-0.007137555629014969,-0.015819542109966278,0.08365123718976974,0.9963396191596985,0.0024999999441206455,0.0,0.0,0.0,0.0024999999441206455,0.0,0.0,0.0,0.0024999999441206455,0.0,0.0,0.0,0.019999999552965164,0.0,0.0,0.0,0.019999999552965164,0.0,0.0,0.0,0.019999999552965164,0.31603461503982544,-0.23283611238002777,9.634865760803223,0.03999999910593033,0.0,0.0,0.0,0.03999999910593033,0.0,0.0,0.0,0.03999999910593033
1779691676002551041,382715,1779691675850547626,imu_link,-0.007879274897277355,-0.01590263471007347,0.0836617648601532,0.9963319301605225,0.0024999999441206455,0.0,0.0,0.0,0.0024999999441206455,0.0,0.0,0.0,0.0024999999441206455,0.0,0.0,0.0,0.019999999552965164,0.0,0.0,0.0,0.019999999552965164,0.0,0.0,0.0,0.019999999552965164,0.2950853407382965,-0.2495955228805542,9.643245697021484,0.03999999910593033,0.0,0.0,0.0,0.03999999910593033,0.0,0.0,0.0,0.03999999910593033
1779691676002561240,382716,1779691675855547626,imu_link,-0.008569968864321709,-0.016172954812645912,0.0836697518825531,0.9963211417198181,0.0024999999441206455,0.0,0.0,0.0,0.0024999999441206455,0.0,0.0,0.0,0.0024999999441206455,0.0,0.0,0.0,0.019999999552965164,0.0,0.0,0.0,0.019999999552965164,0.0,0.0,0.0,0.019999999552965164,0.3082534670829773,-0.22924481332302094,9.63067626953125,0.03999999910593033,0.0,0.0,0.0,0.03999999910593033,0.0,0.0,0.0,0.03999999910593033
1779691676002569250,382717,1779691675864547626,imu_link,-0.008569968864321709,-0.016172954812645912,0.0836697518825531,0.9963211417198181,0.0024999999441206455,0.0,0.0,0.0,0.0024999999441206455,0.0,0.0,0.0,0.0024999999441206455,0.0,0.0,0.0,0.019999999552965164,0.0,0.0,0.0,0.019999999552965164,0.0,0.0,0.0,0.019999999552965164,0.3082534670829773,-0.22924481332302094,9.63067626953125,0.03999999910593033,0.0,0.0,0.0,0.03999999910593033,0.0,0.0,0.0,0.03999999910593033
1779691676002581182,382718,1779691675867547626,imu_link,-0.009275455959141254,-0.017109932377934456,0.08367129415273666,0.9962990880012512,0.0024999999441206455,0.0,0.0,0.0,0.0024999999441206455,0.0,0.0,0.0,0.0024999999441206455,0.0,0.0,0.0,0.019999999552965164,0.0,0.0,0.0,0.019999999552965164,0.0,0.0,0.0,0.019999999552965164,0.3489548861980438,-0.23702596127986908,9.663596153259277,0.03999999910593033,0.0,0.0,0.0,0.03999999910593033,0.0,0.0,0.0,0.03999999910593033
1779691676002584711,382719,1779691675874547626,imu_link,-0.010006808675825596,-0.017012009397149086,0.08368422091007233,0.9962925314903259,0.0024999999441206455,0.0,0.0,0.0,0.0024999999441206455,0.0,0.0,0.0,0.0024999999441206455,0.0,0.0,0.0,0.019999999552965164,0.0,0.0,0.0,0.019999999552965164,0.0,0.0,0.0,0.019999999552965164,0.304063618183136,-0.243011474609375,9.594164848327637,0.03999999910593033,0.0,0.0,0.0,0.03999999910593033,0.0,0.0,0.0,0.03999999910593033
1779691676002589531,382720,1779691675879547626,imu_link,-0.010006808675825596,-0.017012009397149086,0.08368422091007233,0.9962925314903259,0.0024999999441206455,0.0,0.0,0.0,0.0024999999441206455,0.0,0.0,0.0,0.0024999999441206455,0.0,0.0,0.0,0.019999999552965164,0.0,0.0,0.0,0.019999999552965164,0.0,0.0,0.0,0.019999999552965164,0.304063618183136,-0.243011474609375,9.594164848327637,0.03999999910593033,0.0,0.0,0.0,0.03999999910593033,0.0,0.0,0.0,0.03999999910593033
1779691676002600150,382721,1779691675930547626,imu_link,-0.014022278599441051,-0.013750403188169003,0.08378499746322632,0.9962860345840454,0.0024999999441206455,0.0,0.0,0.0,0.0024999999441206455,0.0,0.0,0.0,0.0024999999441206455,0.0,0.0,0.0,0.019999999552965164,0.0,0.0,0.0,0.019999999552965164,0.0,0.0,0.0,0.019999999552965164,0.2885012924671173,-0.2412158101797104,9.606734275817871,0.03999999910593033,0.0,0.0,0.0,0.03999999910593033,0.0,0.0,0.0,0.03999999910593033
1779691676002609498,382722,1779691675933547626,imu_link,-0.013590832240879536,-0.014284073375165462,0.08377150446176529,0.996285617351532,0.0024999999441206455,0.0,0.0,0.0,0.0024999999441206455,0.0,0.0,0.0,0.0024999999441206455,0.0,0.0,0.0,0.019999999552965164,0.0,0.0,0.0,0.019999999552965164,0.0,0.0,0.0,0.019999999552965164,0.32261866331100464,-0.23822306096553802,9.668384552001953,0.03999999910593033,0.0,0.0,0.0,0.03999999910593033,0.0,0.0,0.0,0.03999999910593033
1779691676002622213,382723,1779691675940547626,imu_link,-0.013191593810915947,-0.01490751001983881,0.08375706523656845,0.9962830543518066,0.0024999999441206455,0.0,0.0,0.0,0.0024999999441206455,0.0,0.0,0.0,0.0024999999441206455,0.0,0.0,0.0,0.019999999552965164,0.0,0.0,0.0,0.019999999552965164,0.0,0.0,0.0,0.019999999552965164,0.3076549172401428,-0.2555810213088989,9.646238327026367,0.03999999910593033,0.0,0.0,0.0,0.03999999910593033,0.0,0.0,0.0,0.03999999910593033
1779691676002628072,382724,1779691675945547626,imu_link,-0.013191593810915947,-0.01490751001983881,0.08375706523656845,0.9962830543518066,0.0024999999441206455,0.0,0.0,0.0,0.0024999999441206455,0.0,0.0,0.0,0.0024999999441206455,0.0,0.0,0.0,0.019999999552965164,0.0,0.0,0.0,0.019999999552965164,0.0,0.0,0.0,0.019999999552965164,0.3076549172401428,-0.2555810213088989,9.646238327026367,0.03999999910593033,0.0,0.0,0.0,0.03999999910593033,0.0,0.0,0.0,0.03999999910593033
1779691676002643013,382725,1779691675950547626,imu_link,-0.01262548379600048,-0.015393728390336037,0.08374225348234177,0.9962841868400574,0.0024999999441206455,0.0,0.0,0.0,0.0024999999441206455,0.0,0.0,0.0,0.0024999999441206455,0.0,0.0,0.0,0.019999999552965164,0.0,0.0,0.0,0.019999999552965164,0.0,0.0,0.0,0.019999999552965164,0.3064578175544739,-0.23762451112270355,9.648633003234863,0.03999999910593033,0.0,0.0,0.0,0.03999999910593033,0.0,0.0,0.0,0.03999999910593033
1779691676002650955,382726,1779691675955547626,imu_link,-0.012138008140027523,-0.015952907502651215,0.08372750878334045,0.996282696723938,0.0024999999441206455,0.0,0.0,0.0,0.0024999999441206455,0.0,0.0,0.0,0.0024999999441206455,0.0,0.0,0.0,0.019999999552965164,0.0,0.0,0.0,0.019999999552965164,0.0,0.0,0.0,0.019999999552965164,0.30705636739730835,-0.24361002445220947,9.622895240783691,0.03999999910593033,0.0,0.0,0.0,0.03999999910593033,0.0,0.0,0.0,0.03999999910593033
1779691676015884523,382727,1779691675964547626,imu_link,-0.012138008140027523,-0.015952907502651215,0.08372750878334045,0.996282696723938,0.0024999999441206455,0.0,0.0,0.0,0.0024999999441206455,0.0,0.0,0.0,0.0024999999441206455,0.0,0.0,0.0,0.019999999552965164,0.0,0.0,0.0,0.019999999552965164,0.0,0.0,0.0,0.019999999552965164,0.30705636739730835,-0.24361002445220947,9.622895240783691,0.03999999910593033,0.0,0.0,0.0,0.03999999910593033,0.0,0.0,0.0,0.03999999910593033
1779691676039398191,382728,1779691676026547626,imu_link,-0.00708288699388504,-0.020327331498265266,0.08359163254499435,0.9962632060050964,0.0024999999441206455,0.0,0.0,0.0,0.0024999999441206455,0.0,0.0,0.0,0.0024999999441206455,0.0,0.0,0.0,0.019999999552965164,0.0,0.0,0.0,0.019999999552965164,0.0,0.0,0.0,0.019999999552965164,0.31184476613998413,-0.23523031175136566,9.64564037322998,0.03999999910593033,0.0,0.0,0.0,0.03999999910593033,0.0,0.0,0.0,0.03999999910593033
1779691676045650421,382729,1779691676029547626,imu_link,-0.0076586781069636345,-0.019953489303588867,0.08360620588064194,0.9962652921676636,0.0024999999441206455,0.0,0.0,0.0,0.0024999999441206455,0.0,0.0,0.0,0.0024999999441206455,0.0,0.0,0.0,0.019999999552965164,0.0,0.0,0.0,0.019999999552965164,0.0,0.0,0.0,0.019999999552965164,0.31842881441116333,-0.24600422382354736,9.617507934570312,0.03999999910593033,0.0,0.0,0.0,0.03999999910593033,0.0,0.0,0.0,0.03999999910593033
1779691676051702741,382730,1779691676036547626,imu_link,-0.008071928285062313,-0.01934141106903553,0.08361984044313431,0.9962730407714844,0.0024999999441206455,0.0,0.0,0.0,0.0024999999441206455,0.0,0.0,0.0,0.0024999999441206455,0.0,0.0,0.0,0.019999999552965164,0.0,0.0,0.0,0.019999999552965164,0.0,0.0,0.0,0.019999999552965164,0.2890998423099518,-0.2238578498363495,9.602544784545898,0.03999999910593033,0.0,0.0,0.0,0.03999999910593033,0.0,0.0,0.0,0.03999999910593033
1779691676057551011,382731,1779691676041547626,imu_link,-0.008071928285062313,-0.01934141106903553,0.08361984044313431,0.9962730407714844,0.0024999999441206455,0.0,0.0,0.0,0.0024999999441206455,0.0,0.0,0.0,0.0024999999441206455,0.0,0.0,0.0,0.019999999552965164,0.0,0.0,0.0,0.019999999552965164,0.0,0.0,0.0,0.019999999552965164,0.2890998423099518,-0.2238578498363495,9.602544784545898,0.03999999910593033,0.0,0.0,0.0,0.03999999910593033,0.0,0.0,0.0,0.03999999910593033
1779691676063174456,382732,1779691676046547626,imu_link,-0.008358347229659557,-0.018652766942977905,0.08363179862499237,0.9962827563285828,0.0024999999441206455,0.0,0.0,0.0,0.0024999999441206455,0.0,0.0,0.0,0.0024999999441206455,0.0,0.0,0.0,0.019999999552965164,0.0,0.0,0.0,0.019999999552965164,0.0,0.0,0.0,0.019999999552965164,0.29209259152412415,-0.20709843933582306,9.618704795837402,0.03999999910593033,0.0,0.0,0.0,0.03999999910593033,0.0,0.0,0.0,0.03999999910593033
1779691676075001258,382733,1779691676051547626,imu_link,-0.009008140303194523,-0.01829507015645504,0.08364693820476532,0.9962825179100037,0.0024999999441206455,0.0,0.0,0.0,0.0024999999441206455,0.0,0.0,0.0,0.0024999999441206455,0.0,0.0,0.0,0.019999999552965164,0.0,0.0,0.0,0.019999999552965164,0.0,0.0,0.0,0.019999999552965164,0.304063618183136,-0.25438392162323,9.665990829467773,0.03999999910593033,0.0,0.0,0.0,0.03999999910593033,0.0,0.0,0.0,0.03999999910593033
1779691676099528344,382734,1779691676060547626,imu_link,-0.009008140303194523,-0.01829507015645504,0.08364693820476532,0.9962825179100037,0.0024999999441206455,0.0,0.0,0.0,0.0024999999441206455,0.0,0.0,0.0,0.0024999999441206455,0.0,0.0,0.0,0.019999999552965164,0.0,0.0,0.0,0.019999999552965164,0.0,0.0,0.0,0.019999999552965164,0.304063618183136,-0.25438392162323,9.665990829467773,0.03999999910593033,0.0,0.0,0.0,0.03999999910593033,0.0,0.0,0.0,0.03999999910593033
1779691676105917296,382735,1779691676063547626,imu_link,-0.009808722883462906,-0.017436720430850983,0.08366988599300385,0.9962883591651917,0.0024999999441206455,0.0,0.0,0.0,0.0024999999441206455,0.0,0.0,0.0,0.0024999999441206455,0.0,0.0,0.0,0.019999999552965164,0.0,0.0,0.0,0.019999999552965164,0.0,0.0,0.0,0.019999999552965164,0.2998737692832947,-0.23104046285152435,9.619303703308105,0.03999999910593033,0.0,0.0,0.0,0.03999999910593033,0.0,0.0,0.0,0.03999999910593033
1779691676129909011,382736,1779691676117547626,imu_link,-0.013551217503845692,-0.014108684845268726,0.08376819640398026,0.9962888360023499,0.0024999999441206455,0.0,0.0,0.0,0.0024999999441206455,0.0,0.0,0.0,0.0024999999441206455,0.0,0.0,0.0,0.019999999552965164,0.0,0.0,0.0,0.019999999552965164,0.0,0.0,0.0,0.019999999552965164,0.2950853407382965,-0.23702596127986908,9.588777542114258,0.03999999910593033,0.0,0.0,0.0,0.03999999910593033,0.0,0.0,0.0,0.03999999910593033
1779691676136171705,382737,1779691676120547626,imu_link,-0.013153046369552612,-0.014669075608253479,0.08375480771064758,0.9962872862815857,0.0024999999441206455,0.0,0.0,0.0,0.0024999999441206455,0.0,0.0,0.0,0.0024999999441206455,0.0,0.0,0.0,0.019999999552965164,0.0,0.0,0.0,0.019999999552965164,0.0,0.0,0.0,0.019999999552965164,0.28969839215278625,-0.2579752206802368,9.607333183288574,0.03999999910593033,0.0,0.0,0.0,0.03999999910593033,0.0,0.0,0.0,0.03999999910593033
1779691676142126059,382738,1779691676127547626,imu_link,-0.012734501622617245,-0.015279842540621758,0.08374036848545074,0.9962847232818604,0.0024999999441206455,0.0,0.0,0.0,0.0024999999441206455,0.0,0.0,0.0,0.0024999999441206455,0.0,0.0,0.0,0.019999999552965164,0.0,0.0,0.0,0.019999999552965164,0.0,0.0,0.0,0.019999999552965164,0.3166331648826599,-0.2454056739807129,9.654019355773926,0.03999999910593033,0.0,0.0,0.0,0.03999999910593033,0.0,0.0,0.0,0.03999999910593033
1779691676146966695,382739,1779691676132547626,imu_link,-0.012734501622617245,-0.015279842540621758,0.08374036848545074,0.9962847232818604,0.0024999999441206455,0.0,0.0,0.0,0.0024999999441206455,0.0,0.0,0.0,0.0024999999441206455,0.0,0.0,0.0,0.019999999552965164,0.0,0.0,0.0,0.019999999552965164,0.0,0.0,0.0,0.019999999552965164,0.3166331648826599,-0.2454056739807129,9.654019355773926,0.03999999910593033,0.0,0.0,0.0,0.03999999910593033,0.0,0.0,0.0,0.03999999910593033
1779691676152483810,382740,1779691676137547626,imu_link,-0.012126320973038673,-0.015711767598986626,0.0837256982922554,0.9962868690490723,0.0024999999441206455,0.0,0.0,0.0,0.0024999999441206455,0.0,0.0,0.0,0.0024999999441206455,0.0,0.0,0.0,0.019999999552965164,0.0,0.0,0.0,0.019999999552965164,0.0,0.0,0.0,0.019999999552965164,0.2974795699119568,-0.23942016065120697,9.619303703308105,0.03999999910593033,0.0,0.0,0.0,0.03999999910593033,0.0,0.0,0.0,0.03999999910593033
1779691676159794150,382741,1779691676142547626,imu_link,-0.011388813145458698,-0.015635007992386818,0.08371590077877045,0.9962975978851318,0.0024999999441206455,0.0,0.0,0.0,0.0024999999441206455,0.0,0.0,0.0,0.0024999999441206455,0.0,0.0,0.0,0.019999999552965164,0.0,0.0,0.0,0.019999999552965164,0.0,0.0,0.0,0.019999999552965164,0.28371289372444153,-0.24420857429504395,9.694122314453125,0.03999999910593033,0.0,0.0,0.0,0.03999999910593033,0.0,0.0,0.0,0.03999999910593033
1779691676188848400,382742,1779691676151547626,imu_link,-0.011388813145458698,-0.015635007992386818,0.08371590077877045,0.9962975978851318,0.0024999999441206455,0.0,0.0,0.0,0.0024999999441206455,0.0,0.0,0.0,0.0024999999441206455,0.0,0.0,0.0,0.019999999552965164,0.0,0.0,0.0,0.019999999552965164,0.0,0.0,0.0,0.019999999552965164,0.28371289372444153,-0.24420857429504395,9.694122314453125,0.03999999910593033,0.0,0.0,0.0,0.03999999910593033,0.0,0.0,0.0,0.03999999910593033
1779691676195393921,382743,1779691676154547626,imu_link,-0.010231221094727516,-0.01583787053823471,0.08369634300470352,0.9963086843490601,0.0024999999441206455,0.0,0.0,0.0,0.0024999999441206455,0.0,0.0,0.0,0.0024999999441206455,0.0,0.0,0.0,0.019999999552965164,0.0,0.0,0.0,0.019999999552965164,0.0,0.0,0.0,0.019999999552965164,0.2867056429386139,-0.22625206410884857,9.635464668273926,0.03999999910593033,0.0,0.0,0.0,0.03999999910593033,0.0,0.0,0.0,0.03999999910593033
1779691676219528057,382744,1779691676199547626,imu_link,-0.012735883705317974,-0.019085343927145004,0.08369560539722443,0.996222972869873,0.0024999999441206455,0.0,0.0,0.0,0.0024999999441206455,0.0,0.0,0.0,0.0024999999441206455,0.0,0.0,0.0,0.019999999552965164,0.0,0.0,0.0,0.019999999552965164,0.0,0.0,0.0,0.019999999552965164,0.3058592677116394,-0.2388216108083725,9.598953247070312,0.03999999910593033,0.0,0.0,0.0,0.03999999910593033,0.0,0.0,0.0,0.03999999910593033
1779691676226508761,382745,1779691676202547626,imu_link,-0.01219639740884304,-0.018658554181456566,0.08369197696447372,0.9962378740310669,0.0024999999441206455,0.0,0.0,0.0,0.0024999999441206455,0.0,0.0,0.0,0.0024999999441206455,0.0,0.0,0.0,0.019999999552965164,0.0,0.0,0.0,0.019999999552965164,0.0,0.0,0.0,0.019999999552965164,0.3124433159828186,-0.2256534993648529,9.596558570861816,0.03999999910593033,0.0,0.0,0.0,0.03999999910593033,0.0,0.0,0.0,0.03999999910593033
1779691676231780755,382746,1779691676209547626,imu_link,-0.011875440366566181,-0.017989875748753548,0.08369550108909607,0.9962539076805115,0.0024999999441206455,0.0,0.0,0.0,0.0024999999441206455,0.0,0.0,0.0,0.0024999999441206455,0.0,0.0,0.0,0.019999999552965164,0.0,0.0,0.0,0.019999999552965164,0.0,0.0,0.0,0.019999999552965164,0.3172317147254944,-0.2513911724090576,9.578003883361816,0.03999999910593033,0.0,0.0,0.0,0.03999999910593033,0.0,0.0,0.0,0.03999999910593033
1779691676238198597,382747,1779691676214547626,imu_link,-0.011875440366566181,-0.017989875748753548,0.08369550108909607,0.9962539076805115,0.0024999999441206455,0.0,0.0,0.0,0.0024999999441206455,0.0,0.0,0.0,0.0024999999441206455,0.0,0.0,0.0,0.019999999552965164,0.0,0.0,0.0,0.019999999552965164,0.0,0.0,0.0,0.019999999552965164,0.3172317147254944,-0.2513911724090576,9.578003883361816,0.03999999910593033,0.0,0.0,0.0,0.03999999910593033,0.0,0.0,0.0,0.03999999910593033
1779691676244548258,382748,1779691676219547626,imu_link,-0.011233394034206867,-0.017610816285014153,0.08368965238332748,0.9962685108184814,0.0024999999441206455,0.0,0.0,0.0,0.0024999999441206455,0.0,0.0,0.0,0.0024999999441206455,0.0,0.0,0.0,0.019999999552965164,0.0,0.0,0.0,0.019999999552965164,0.0,0.0,0.0,0.019999999552965164,0.3058592677116394,-0.21368250250816345,9.652822494506836,0.03999999910593033,0.0,0.0,0.0,0.03999999910593033,0.0,0.0,0.0,0.03999999910593033
1779691676249910906,382749,1779691676224547626,imu_link,-0.011247705668210983,-0.016869742423295975,0.08369926363229752,0.9962803721427917,0.0024999999441206455,0.0,0.0,0.0,0.0024999999441206455,0.0,0.0,0.0,0.0024999999441206455,0.0,0.0,0.0,0.019999999552965164,0.0,0.0,0.0,0.019999999552965164,0.0,0.0,0.0,0.019999999552965164,0.2867056429386139,-0.2412158101797104,9.59715747833252,0.03999999910593033,0.0,0.0,0.0,0.03999999910593033,0.0,0.0,0.0,0.03999999910593033
1779691676273843813,382750,1779691676233547626,imu_link,-0.011247705668210983,-0.016869742423295975,0.08369926363229752,0.9962803721427917,0.0024999999441206455,0.0,0.0,0.0,0.0024999999441206455,0.0,0.0,0.0,0.0024999999441206455,0.0,0.0,0.0,0.019999999552965164,0.0,0.0,0.0,0.019999999552965164,0.0,0.0,0.0,0.019999999552965164,0.2867056429386139,-0.2412158101797104,9.59715747833252,0.03999999910593033,0.0,0.0,0.0,0.03999999910593033,0.0,0.0,0.0,0.03999999910593033
1779691676280529072,382751,1779691676236547626,imu_link,-0.012408711016178131,-0.017049703747034073,0.08371537178754807,0.99626225233078,0.0024999999441206455,0.0,0.0,0.0,0.0024999999441206455,0.0,0.0,0.0,0.0024999999441206455,0.0,0.0,0.0,0.019999999552965164,0.0,0.0,0.0,0.019999999552965164,0.0,0.0,0.0,0.019999999552965164,0.30526071786880493,-0.2555810213088989,9.582193374633789,0.03999999910593033,0.0,0.0,0.0,0.03999999910593033,0.0,0.0,0.0,0.03999999910593033
1779691676305506015,382752,1779691676292547626,imu_link,-0.00729030929505825,-0.016124332323670387,0.08364535123109818,0.9963341951370239,0.0024999999441206455,0.0,0.0,0.0,0.0024999999441206455,0.0,0.0,0.0,0.0024999999441206455,0.0,0.0,0.0,0.019999999552965164,0.0,0.0,0.0,0.019999999552965164,0.0,0.0,0.0,0.019999999552965164,0.30466216802597046,-0.24600422382354736,9.600749015808105,0.03999999910593033,0.0,0.0,0.0,0.03999999910593033,0.0,0.0,0.0,0.03999999910593033
1779691676311503143,382753,1779691676295547626,imu_link,-0.007966508157551289,-0.01626574620604515,0.08365456759929657,0.9963259100914001,0.0024999999441206455,0.0,0.0,0.0,0.0024999999441206455,0.0,0.0,0.0,0.0024999999441206455,0.0,0.0,0.0,0.019999999552965164,0.0,0.0,0.0,0.019999999552965164,0.0,0.0,0.0,0.019999999552965164,0.3076549172401428,-0.2346317619085312,9.676165580749512,0.03999999910593033,0.0,0.0,0.0,0.03999999910593033,0.0,0.0,0.0,0.03999999910593033
1779691676317324080,382754,1779691676302547626,imu_link,-0.008701439946889877,-0.016168635338544846,0.08366686850786209,0.9963203072547913,0.0024999999441206455,0.0,0.0,0.0,0.0024999999441206455,0.0,0.0,0.0,0.0024999999441206455,0.0,0.0,0.0,0.019999999552965164,0.0,0.0,0.0,0.019999999552965164,0.0,0.0,0.0,0.019999999552965164,0.28550854325294495,-0.24420857429504395,9.636063575744629,0.03999999910593033,0.0,0.0,0.0,0.03999999910593033,0.0,0.0,0.0,0.03999999910593033
1779691676323072170,382755,1779691676307547626,imu_link,-0.008701439946889877,-0.016168635338544846,0.08366686850786209,0.9963203072547913,0.0024999999441206455,0.0,0.0,0.0,0.0024999999441206455,0.0,0.0,0.0,0.0024999999441206455,0.0,0.0,0.0,0.019999999552965164,0.0,0.0,0.0,0.019999999552965164,0.0,0.0,0.0,0.019999999552965164,0.28550854325294495,-0.24420857429504395,9.636063575744629,0.03999999910593033,0.0,0.0,0.0,0.03999999910593033,0.0,0.0,0.0,0.03999999910593033
1779691676328745276,382756,1779691676312547626,imu_link,-0.009438948705792427,-0.016282029449939728,0.08367706835269928,0.9963109493255615,0.0024999999441206455,0.0,0.0,0.0,0.0024999999441206455,0.0,0.0,0.0,0.0024999999441206455,0.0,0.0,0.0,0.019999999552965164,0.0,0.0,0.0,0.019999999552965164,0.0,0.0,0.0,0.019999999552965164,0.2992752194404602,-0.23942016065120697,9.617507934570312,0.03999999910593033,0.0,0.0,0.0,0.03999999910593033,0.0,0.0,0.0,0.03999999910593033
1779691676334376064,382757,1779691676317547626,imu_link,-0.010162114165723324,-0.01644638366997242,0.08368643373250961,0.9963002800941467,0.0024999999441206455,0.0,0.0,0.0,0.0024999999441206455,0.0,0.0,0.0,0.0024999999441206455,0.0,0.0,0.0,0.019999999552965164,0.0,0.0,0.0,0.019999999552965164,0.0,0.0,0.0,0.019999999552965164,0.3016694188117981,-0.24061726033687592,9.61451530456543,0.03999999910593033,0.0,0.0,0.0,0.03999999910593033,0.0,0.0,0.0,0.03999999910593033
1779691676359560409,382758,1779691676326547626,imu_link,-0.010162114165723324,-0.01644638366997242,0.08368643373250961,0.9963002800941467,0.0024999999441206455,0.0,0.0,0.0,0.0024999999441206455,0.0,0.0,0.0,0.0024999999441206455,0.0,0.0,0.0,0.019999999552965164,0.0,0.0,0.0,0.019999999552965164,0.0,0.0,0.0,0.019999999552965164,0.3016694188117981,-0.24061726033687592,9.61451530456543,0.03999999910593033,0.0,0.0,0.0,0.03999999910593033,0.0,0.0,0.0,0.03999999910593033
1779691676366674577,382759,1779691676329547626,imu_link,-0.011233839206397533,-0.01596212387084961,0.08370859920978546,0.9962947368621826,0.0024999999441206455,0.0,0.0,0.0,0.0024999999441206455,0.0,0.0,0.0,0.0024999999441206455,0.0,0.0,0.0,0.019999999552965164,0.0,0.0,0.0,0.019999999552965164,0.0,0.0,0.0,0.019999999552965164,0.29448679089546204,-0.23343466222286224,9.66658878326416,0.03999999910593033,0.0,0.0,0.0,0.03999999910593033,0.0,0.0,0.0,0.03999999910593033
1779691676391455437,382760,1779691676377547626,imu_link,-0.01169597264379263,-0.011584737338125706,0.08376957476139069,0.996344804763794,0.0024999999441206455,0.0,0.0,0.0,0.0024999999441206455,0.0,0.0,0.0,0.0024999999441206455,0.0,0.0,0.0,0.019999999552965164,0.0,0.0,0.0,0.019999999552965164,0.0,0.0,0.0,0.019999999552965164,0.264559268951416,-0.24181437492370605,9.623493194580078,0.03999999910593033,0.0,0.0,0.0,0.03999999910593033,0.0,0.0,0.0,0.03999999910593033
1779691676397539806,382761,1779691676380547626,imu_link,-0.011446642689406872,-0.0122290113940835,0.08375878632068634,0.9963409304618835,0.0024999999441206455,0.0,0.0,0.0,0.0024999999441206455,0.0,0.0,0.0,0.0024999999441206455,0.0,0.0,0.0,0.019999999552965164,0.0,0.0,0.0,0.019999999552965164,0.0,0.0,0.0,0.019999999552965164,0.29628247022628784,-0.21547815203666687,9.610923767089844,0.03999999910593033,0.0,0.0,0.0,0.03999999910593033,0.0,0.0,0.0,0.03999999910593033
1779691676403074872,382762,1779691676385547626,imu_link,-0.011446642689406872,-0.0122290113940835,0.08375878632068634,0.9963409304618835,0.0024999999441206455,0.0,0.0,0.0,0.0024999999441206455,0.0,0.0,0.0,0.0024999999441206455,0.0,0.0,0.0,0.019999999552965164,0.0,0.0,0.0,0.019999999552965164,0.0,0.0,0.0,0.019999999552965164,0.29628247022628784,-0.21547815203666687,9.610923767089844,0.03999999910593033,0.0,0.0,0.0,0.03999999910593033,0.0,0.0,0.0,0.03999999910593033
1779691676410106269,382763,1779691676392547626,imu_link,-0.011456018313765526,-0.012975302524864674,0.08374959230422974,0.9963322281837463,0.0024999999441206455,0.0,0.0,0.0,0.0024999999441206455,0.0,0.0,0.0,0.0024999999441206455,0.0,0.0,0.0,0.019999999552965164,0.0,0.0,0.0,0.019999999552965164,0.0,0.0,0.0,0.019999999552965164,0.2992752194404602,-0.24660277366638184,9.587580680847168,0.03999999910593033,0.0,0.0,0.0,0.03999999910593033,0.0,0.0,0.0,0.03999999910593033
1779691676415067465,382764,1779691676397547626,imu_link,-0.011563563719391823,-0.013709117658436298,0.0837416723370552,0.9963217377662659,0.0024999999441206455,0.0,0.0,0.0,0.0024999999441206455,0.0,0.0,0.0,0.0024999999441206455,0.0,0.0,0.0,0.019999999552965164,0.0,0.0,0.0,0.019999999552965164,0.0,0.0,0.0,0.019999999552965164,0.2908954918384552,-0.2537853717803955,9.567828178405762,0.03999999910593033,0.0,0.0,0.0,0.03999999910593033,0.0,0.0,0.0,0.03999999910593033
1779691676421770105,382765,1779691676402547626,imu_link,-0.011573937721550465,-0.014450522139668465,0.08373239636421204,0.9963120222091675,0.0024999999441206455,0.0,0.0,0.0,0.0024999999441206455,0.0,0.0,0.0,0.0024999999441206455,0.0,0.0,0.0,0.019999999552965164,0.0,0.0,0.0,0.019999999552965164,0.0,0.0,0.0,0.019999999552965164,0.2885012924671173,-0.24899697303771973,9.652223587036133,0.03999999910593033,0.0,0.0,0.0,0.03999999910593033,0.0,0.0,0.0,0.03999999910593033
1779691676446963359,382766,1779691676411547626,imu_link,-0.011573937721550465,-0.014450522139668465,0.08373239636421204,0.9963120222091675,0.0024999999441206455,0.0,0.0,0.0,0.0024999999441206455,0.0,0.0,0.0,0.0024999999441206455,0.0,0.0,0.0,0.019999999552965164,0.0,0.0,0.0,0.019999999552965164,0.0,0.0,0.0,0.019999999552965164,0.2885012924671173,-0.24899697303771973,9.652223587036133,0.03999999910593033,0.0,0.0,0.0,0.03999999910593033,0.0,0.0,0.0,0.03999999910593033
1779691676453747036,382767,1779691676414547626,imu_link,-0.011723557487130165,-0.01561510656028986,0.08371950685977936,0.9962937831878662,0.0024999999441206455,0.0,0.0,0.0,0.0024999999441206455,0.0,0.0,0.0,0.0024999999441206455,0.0,0.0,0.0,0.019999999552965164,0.0,0.0,0.0,0.019999999552965164,0.0,0.0,0.0,0.019999999552965164,0.2932896912097931,-0.25318682193756104,9.640253067016602,0.03999999910593033,0.0,0.0,0.0,0.03999999910593033,0.0,0.0,0.0,0.03999999910593033
1779691676459759728,382768,1779691676419547626,imu_link,-0.011723557487130165,-0.01561510656028986,0.08371950685977936,0.9962937831878662,0.0024999999441206455,0.0,0.0,0.0,0.0024999999441206455,0.0,0.0,0.0,0.0024999999441206455,0.0,0.0,0.0,0.019999999552965164,0.0,0.0,0.0,0.019999999552965164,0.0,0.0,0.0,0.019999999552965164,0.2932896912097931,-0.25318682193756104,9.640253067016602,0.03999999910593033,0.0,0.0,0.0,0.03999999910593033,0.0,0.0,0.0,0.03999999910593033
1779691676465742784,382769,1779691676424547626,imu_link,-0.012311765924096107,-0.016068557277321815,0.08372217416763306,0.996279239654541,0.0024999999441206455,0.0,0.0,0.0,0.0024999999441206455,0.0,0.0,0.0,0.0024999999441206455,0.0,0.0,0.0,0.019999999552965164,0.0,0.0,0.0,0.019999999552965164,0.0,0.0,0.0,0.019999999552965164,0.2914940416812897,-0.2651578485965729,9.709086418151855,0.03999999910593033,0.0,0.0,0.0,0.03999999910593033,0.0,0.0,0.0,0.03999999910593033
1779691676490572678,382770,1779691676478547626,imu_link,-0.011843590997159481,-0.02130354940891266,0.08364272117614746,0.9961934089660645,0.0024999999441206455,0.0,0.0,0.0,0.0024999999441206455,0.0,0.0,0.0,0.0024999999441206455,0.0,0.0,0.0,0.019999999552965164,0.0,0.0,0.0,0.019999999552965164,0.0,0.0,0.0,0.019999999552965164,0.33039984107017517,-0.2621650695800781,9.630077362060547,0.03999999910593033,0.0,0.0,0.0,0.03999999910593033,0.0,0.0,0.0,0.03999999910593033
1779691676499503195,382771,1779691676481547626,imu_link,-0.011761017143726349,-0.02062271162867546,0.08365027606487274,0.9962079524993896,0.0024999999441206455,0.0,0.0,0.0,0.0024999999441206455,0.0,0.0,0.0,0.0024999999441206455,0.0,0.0,0.0,0.019999999552965164,0.0,0.0,0.0,0.019999999552965164,0.0,0.0,0.0,0.019999999552965164,0.284311443567276,-0.24001871049404144,9.637260437011719,0.03999999910593033,0.0,0.0,0.0,0.03999999910593033,0.0,0.0,0.0,0.03999999910593033
1779691676505068644,382772,1779691676488547626,imu_link,-0.01179719902575016,-0.019882172346115112,0.08366092294454575,0.9962217211723328,0.0024999999441206455,0.0,0.0,0.0,0.0024999999441206455,0.0,0.0,0.0,0.0024999999441206455,0.0,0.0,0.0,0.019999999552965164,0.0,0.0,0.0,0.019999999552965164,0.0,0.0,0.0,0.019999999552965164,0.284311443567276,-0.25498247146606445,9.594762802124023,0.03999999910593033,0.0,0.0,0.0,0.03999999910593033,0.0,0.0,0.0,0.03999999910593033
1779691676510853614,382773,1779691676493547626,imu_link,-0.01179719902575016,-0.019882172346115112,0.08366092294454575,0.9962217211723328,0.0024999999441206455,0.0,0.0,0.0,0.0024999999441206455,0.0,0.0,0.0,0.0024999999441206455,0.0,0.0,0.0,0.019999999552965164,0.0,0.0,0.0,0.019999999552965164,0.0,0.0,0.0,0.019999999552965164,0.284311443567276,-0.25498247146606445,9.594762802124023,0.03999999910593033,0.0,0.0,0.0,0.03999999910593033,0.0,0.0,0.0,0.03999999910593033
1779691676516677583,382774,1779691676498547626,imu_link,-0.011547061614692211,-0.019180141389369965,0.08366560935974121,0.9962379932403564,0.0024999999441206455,0.0,0.0,0.0,0.0024999999441206455,0.0,0.0,0.0,0.0024999999441206455,0.0,0.0,0.0,0.019999999552965164,0.0,0.0,0.0,0.019999999552965164,0.0,0.0,0.0,0.019999999552965164,0.30526071786880493,-0.2322375625371933,9.601945877075195,0.03999999910593033,0.0,0.0,0.0,0.03999999910593033,0.0,0.0,0.0,0.03999999910593033
1779691676522974783,382775,1779691676503547626,imu_link,-0.011621605604887009,-0.018442638218402863,0.08367661386728287,0.9962501525878906,0.0024999999441206455,0.0,0.0,0.0,0.0024999999441206455,0.0,0.0,0.0,0.0024999999441206455,0.0,0.0,0.0,0.019999999552965164,0.0,0.0,0.0,0.019999999552965164,0.0,0.0,0.0,0.019999999552965164,0.3208230137825012,-0.25258827209472656,9.607333183288574,0.03999999910593033,0.0,0.0,0.0,0.03999999910593033,0.0,0.0,0.0,0.03999999910593033
1779691676549258760,382776,1779691676512547626,imu_link,-0.011621605604887009,-0.018442638218402863,0.08367661386728287,0.9962501525878906,0.0024999999441206455,0.0,0.0,0.0,0.0024999999441206455,0.0,0.0,0.0,0.0024999999441206455,0.0,0.0,0.0,0.019999999552965164,0.0,0.0,0.0,0.019999999552965164,0.0,0.0,0.0,0.019999999552965164,0.3208230137825012,-0.25258827209472656,9.607333183288574,0.03999999910593033,0.0,0.0,0.0,0.03999999910593033,0.0,0.0,0.0,0.03999999910593033
1779691676556148199,382777,1779691676515547626,imu_link,-0.011424310505390167,-0.017283575609326363,0.08368834108114243,0.9962723255157471,0.0024999999441206455,0.0,0.0,0.0,0.0024999999441206455,0.0,0.0,0.0,0.0024999999441206455,0.0,0.0,0.0,0.019999999552965164,0.0,0.0,0.0,0.019999999552965164,0.0,0.0,0.0,0.019999999552965164,0.30226796865463257,-0.24420857429504395,9.619902610778809,0.03999999910593033,0.0,0.0,0.0,0.03999999910593033,0.0,0.0,0.0,0.03999999910593033
1779691676562740566,382778,1779691676520547626,imu_link,-0.011424310505390167,-0.017283575609326363,0.08368834108114243,0.9962723255157471,0.0024999999441206455,0.0,0.0,0.0,0.0024999999441206455,0.0,0.0,0.0,0.0024999999441206455,0.0,0.0,0.0,0.019999999552965164,0.0,0.0,0.0,0.019999999552965164,0.0,0.0,0.0,0.019999999552965164,0.30226796865463257,-0.24420857429504395,9.619902610778809,0.03999999910593033,0.0,0.0,0.0,0.03999999910593033,0.0,0.0,0.0,0.03999999910593033
1779691676568667689,382779,1779691676525547626,imu_link,-0.01085856556892395,-0.016800113022327423,0.08368530124425888,0.9962869882583618,0.0024999999441206455,0.0,0.0,0.0,0.0024999999441206455,0.0,0.0,0.0,0.0024999999441206455,0.0,0.0,0.0,0.019999999552965164,0.0,0.0,0.0,0.019999999552965164,0.0,0.0,0.0,0.019999999552965164,0.30705636739730835,-0.23822306096553802,9.635464668273926,0.03999999910593033,0.0,0.0,0.0,0.03999999910593033,0.0,0.0,0.0,0.03999999910593033
1779691676574001982,382780,1779691676530547626,imu_link,-0.010195096954703331,-0.016468264162540436,0.08367882668972015,0.9963000416755676,0.0024999999441206455,0.0,0.0,0.0,0.0024999999441206455,0.0,0.0,0.0,0.0024999999441206455,0.0,0.0,0.0,0.019999999552965164,0.0,0.0,0.0,0.019999999552965164,0.0,0.0,0.0,0.019999999552965164,0.2998737692832947,-0.22206220030784607,9.638457298278809,0.03999999910593033,0.0,0.0,0.0,0.03999999910593033,0.0,0.0,0.0,0.03999999910593033
1779691676580059298,382781,1779691676537547626,imu_link,-0.010475413873791695,-0.017154192551970482,0.08367526531219482,0.9962860345840454,0.0024999999441206455,0.0,0.0,0.0,0.0024999999441206455,0.0,0.0,0.0,0.0024999999441206455,0.0,0.0,0.0,0.019999999552965164,0.0,0.0,0.0,0.019999999552965164,0.0,0.0,0.0,0.019999999552965164,0.3292027413845062,-0.23702596127986908,9.585784912109375,0.03999999910593033,0.0,0.0,0.0,0.03999999910593033,0.0,0.0,0.0,0.03999999910593033
1779691676603797265,382782,1779691676587547626,imu_link,-0.013587282970547676,-0.020505031570792198,0.08368507027626038,0.9961843490600586,0.0024999999441206455,0.0,0.0,0.0,0.0024999999441206455,0.0,0.0,0.0,0.0024999999441206455,0.0,0.0,0.0,0.019999999552965164,0.0,0.0,0.0,0.019999999552965164,0.0,0.0,0.0,0.019999999552965164,0.3262099623680115,-0.24420857429504395,9.600150108337402,0.03999999910593033,0.0,0.0,0.0,0.03999999910593033,0.0,0.0,0.0,0.03999999910593033
1779691676610862097,382783,1779691676590547626,imu_link,-0.0132810790091753,-0.01988602802157402,0.08368857949972153,0.9962006211280823,0.0024999999441206455,0.0,0.0,0.0,0.0024999999441206455,0.0,0.0,0.0,0.0024999999441206455,0.0,0.0,0.0,0.019999999552965164,0.0,0.0,0.0,0.019999999552965164,0.0,0.0,0.0,0.019999999552965164,0.3064578175544739,-0.25438392162323,9.609726905822754,0.03999999910593033,0.0,0.0,0.0,0.03999999910593033,0.0,0.0,0.0,0.03999999910593033
1779691676616005151,382784,1779691676595547626,imu_link,-0.0132810790091753,-0.01988602802157402,0.08368857949972153,0.9962006211280823,0.0024999999441206455,0.0,0.0,0.0,0.0024999999441206455,0.0,0.0,0.0,0.0024999999441206455,0.0,0.0,0.0,0.019999999552965164,0.0,0.0,0.0,0.019999999552965164,0.0,0.0,0.0,0.019999999552965164,0.3064578175544739,-0.25438392162323,9.609726905822754,0.03999999910593033,0.0,0.0,0.0,0.03999999910593033,0.0,0.0,0.0,0.03999999910593033
1779691676622951389,382785,1779691676600547626,imu_link,-0.012797953560948372,-0.019318953156471252,0.08368798345327377,0.9962183237075806,0.0024999999441206455,0.0,0.0,0.0,0.0024999999441206455,0.0,0.0,0.0,0.0024999999441206455,0.0,0.0,0.0,0.019999999552965164,0.0,0.0,0.0,0.019999999552965164,0.0,0.0,0.0,0.019999999552965164,0.3196259140968323,-0.24600422382354736,9.623493194580078,0.03999999910593033,0.0,0.0,0.0,0.03999999910593033,0.0,0.0,0.0,0.03999999910593033
1779691676627615028,382786,1779691676605547626,imu_link,-0.012501104734838009,-0.01863994263112545,0.08369230479001999,0.9962344765663147,0.0024999999441206455,0.0,0.0,0.0,0.0024999999441206455,0.0,0.0,0.0,0.0024999999441206455,0.0,0.0,0.0,0.019999999552965164,0.0,0.0,0.0,0.019999999552965164,0.0,0.0,0.0,0.019999999552965164,0.2717418968677521,-0.2346317619085312,9.655217170715332,0.03999999910593033,0.0,0.0,0.0,0.03999999910593033,0.0,0.0,0.0,0.03999999910593033
1779691676633946694,382787,1779691676612547626,imu_link,-0.011951630003750324,-0.018142733722925186,0.0836896225810051,0.9962506890296936,0.0024999999441206455,0.0,0.0,0.0,0.0024999999441206455,0.0,0.0,0.0,0.0024999999441206455,0.0,0.0,0.0,0.019999999552965164,0.0,0.0,0.0,0.019999999552965164,0.0,0.0,0.0,0.019999999552965164,0.3130418658256531,-0.23822306096553802,9.600150108337402,0.03999999910593033,0.0,0.0,0.0,0.03999999910593033,0.0,0.0,0.0,0.03999999910593033
1779691676659629247,382788,1779691676621547626,imu_link,-0.011951630003750324,-0.018142733722925186,0.0836896225810051,0.9962506890296936,0.0024999999441206455,0.0,0.0,0.0,0.0024999999441206455,0.0,0.0,0.0,0.0024999999441206455,0.0,0.0,0.0,0.019999999552965164,0.0,0.0,0.0,0.019999999552965164,0.0,0.0,0.0,0.019999999552965164,0.3130418658256531,-0.23822306096553802,9.600150108337402,0.03999999910593033,0.0,0.0,0.0,0.03999999910593033,0.0,0.0,0.0,0.03999999910593033
1779691676666411509,382789,1779691676624547626,imu_link,-0.011076971888542175,-0.01735759899020195,0.08368517458438873,0.9962751865386963,0.0024999999441206455,0.0,0.0,0.0,0.0024999999441206455,0.0,0.0,0.0,0.0024999999441206455,0.0,0.0,0.0,0.019999999552965164,0.0,0.0,0.0,0.019999999552965164,0.0,0.0,0.0,0.019999999552965164,0.304063618183136,-0.22625206410884857,9.59715747833252,0.03999999910593033,0.0,0.0,0.0,0.03999999910593033,0.0,0.0,0.0,0.03999999910593033
1779691676690584585,382790,1779691676674547626,imu_link,-0.0069956229999661446,-0.019482407718896866,0.08359090983867645,0.9962807893753052,0.0024999999441206455,0.0,0.0,0.0,0.0024999999441206455,0.0,0.0,0.0,0.0024999999441206455,0.0,0.0,0.0,0.019999999552965164,0.0,0.0,0.0,0.019999999552965164,0.0,0.0,0.0,0.019999999552965164,0.31543606519699097,-0.23822306096553802,9.596558570861816,0.03999999910593033,0.0,0.0,0.0,0.03999999910593033,0.0,0.0,0.0,0.03999999910593033
1779691676697686149,382791,1779691676677547626,imu_link,-0.0075059006921947,-0.019025152549147606,0.08360444009304047,0.9962847828865051,0.0024999999441206455,0.0,0.0,0.0,0.0024999999441206455,0.0,0.0,0.0,0.0024999999441206455,0.0,0.0,0.0,0.019999999552965164,0.0,0.0,0.0,0.019999999552965164,0.0,0.0,0.0,0.019999999552965164,0.2932896912097931,-0.23283611238002777,9.657610893249512,0.03999999910593033,0.0,0.0,0.0,0.03999999910593033,0.0,0.0,0.0,0.03999999910593033
1779691676703094832,382792,1779691676684547626,imu_link,-0.008215242996811867,-0.018807653337717056,0.08361940085887909,0.9962821006774902,0.0024999999441206455,0.0,0.0,0.0,0.0024999999441206455,0.0,0.0,0.0,0.0024999999441206455,0.0,0.0,0.0,0.019999999552965164,0.0,0.0,0.0,0.019999999552965164,0.0,0.0,0.0,0.019999999552965164,0.32680851221084595,-0.23822306096553802,9.606135368347168,0.03999999910593033,0.0,0.0,0.0,0.03999999910593033,0.0,0.0,0.0,0.03999999910593033
1779691676708803636,382793,1779691676689547626,imu_link,-0.008215242996811867,-0.018807653337717056,0.08361940085887909,0.9962821006774902,0.0024999999441206455,0.0,0.0,0.0,0.0024999999441206455,0.0,0.0,0.0,0.0024999999441206455,0.0,0.0,0.0,0.019999999552965164,0.0,0.0,0.0,0.019999999552965164,0.0,0.0,0.0,0.019999999552965164,0.32680851221084595,-0.23822306096553802,9.606135368347168,0.03999999910593033,0.0,0.0,0.0,0.03999999910593033,0.0,0.0,0.0,0.03999999910593033
1779691676714871432,382794,1779691676694547626,imu_link,-0.008782126940786839,-0.018321340903639793,0.08363434672355652,0.9962849020957947,0.0024999999441206455,0.0,0.0,0.0,0.0024999999441206455,0.0,0.0,0.0,0.0024999999441206455,0.0,0.0,0.0,0.019999999552965164,0.0,0.0,0.0,0.019999999552965164,0.0,0.0,0.0,0.019999999552965164,0.2908954918384552,-0.2454056739807129,9.650428771972656,0.03999999910593033,0.0,0.0,0.0,0.03999999910593033,0.0,0.0,0.0,0.03999999910593033
1779691676720331468,382795,1779691676699547626,imu_link,-0.009487580507993698,-0.018091561272740364,0.08364906162023544,0.9962815046310425,0.0024999999441206455,0.0,0.0,0.0,0.0024999999441206455,0.0,0.0,0.0,0.0024999999441206455,0.0,0.0,0.0,0.019999999552965164,0.0,0.0,0.0,0.019999999552965164,0.0,0.0,0.0,0.019999999552965164,0.3172317147254944,-0.24660277366638184,9.628281593322754,0.03999999910593033,0.0,0.0,0.0,0.03999999910593033,0.0,0.0,0.0,0.03999999910593033
1779691676745406691,382796,1779691676708547626,imu_link,-0.009487580507993698,-0.018091561272740364,0.08364906162023544,0.9962815046310425,0.0024999999441206455,0.0,0.0,0.0,0.0024999999441206455,0.0,0.0,0.0,0.0024999999441206455,0.0,0.0,0.0,0.019999999552965164,0.0,0.0,0.0,0.019999999552965164,0.0,0.0,0.0,0.019999999552965164,0.3172317147254944,-0.24660277366638184,9.628281593322754,0.03999999910593033,0.0,0.0,0.0,0.03999999910593033,0.0,0.0,0.0,0.03999999910593033
1779691676752070689,382797,1779691676711547626,imu_link,-0.010454137809574604,-0.017419667914509773,0.08367303758859634,0.9962819218635559,0.0024999999441206455,0.0,0.0,0.0,0.0024999999441206455,0.0,0.0,0.0,0.0024999999441206455,0.0,0.0,0.0,0.019999999552965164,0.0,0.0,0.0,0.019999999552965164,0.0,0.0,0.0,0.019999999552965164,0.29807811975479126,-0.25318682193756104,9.640253067016602,0.03999999910593033,0.0,0.0,0.0,0.03999999910593033,0.0,0.0,0.0,0.03999999910593033
1779691676776982841,382798,1779691676758547626,imu_link,-0.011429141275584698,-0.013228158466517925,0.08373812586069107,0.996330201625824,0.0024999999441206455,0.0,0.0,0.0,0.0024999999441206455,0.0,0.0,0.0,0.0024999999441206455,0.0,0.0,0.0,0.019999999552965164,0.0,0.0,0.0,0.019999999552965164,0.0,0.0,0.0,0.019999999552965164,0.27892449498176575,-0.2346317619085312,9.634865760803223,0.03999999910593033,0.0,0.0,0.0,0.03999999910593033,0.0,0.0,0.0,0.03999999910593033
1779691676782825027,382799,1779691676761547626,imu_link,-0.01138264499604702,-0.013912946917116642,0.08372897654771805,0.9963220953941345,0.0024999999441206455,0.0,0.0,0.0,0.0024999999441206455,0.0,0.0,0.0,0.0024999999441206455,0.0,0.0,0.0,0.019999999552965164,0.0,0.0,0.0,0.019999999552965164,0.0,0.0,0.0,0.019999999552965164,0.3106476664543152,-0.24241292476654053,9.64564037322998,0.03999999910593033,0.0,0.0,0.0,0.03999999910593033,0.0,0.0,0.0,0.03999999910593033
1779691676788572088,382800,1779691676766547626,imu_link,-0.011431791819632053,-0.014410209842026234,0.08372338116168976,0.9963150024414062,0.0024999999441206455,0.0,0.0,0.0,0.0024999999441206455,0.0,0.0,0.0,0.0024999999441206455,0.0,0.0,0.0,0.019999999552965164,0.0,0.0,0.0,0.019999999552965164,0.0,0.0,0.0,0.019999999552965164,0.295683890581131,-0.2495955228805542,9.625887870788574,0.03999999910593033,0.0,0.0,0.0,0.03999999910593033,0.0,0.0,0.0,0.03999999910593033
1779691676794627619,382801,1779691676773547626,imu_link,-0.01123211719095707,-0.015124407596886158,0.08371168375015259,0.9963076710700989,0.0024999999441206455,0.0,0.0,0.0,0.0024999999441206455,0.0,0.0,0.0,0.0024999999441206455,0.0,0.0,0.0,0.019999999552965164,0.0,0.0,0.0,0.019999999552965164,0.0,0.0,0.0,0.019999999552965164,0.304063618183136,-0.23523031175136566,9.66958236694336,0.03999999910593033,0.0,0.0,0.0,0.03999999910593033,0.0,0.0,0.0,0.03999999910593033
1779691676800274298,382802,1779691676778547626,imu_link,-0.01123211719095707,-0.015124407596886158,0.08371168375015259,0.9963076710700989,0.0024999999441206455,0.0,0.0,0.0,0.0024999999441206455,0.0,0.0,0.0,0.0024999999441206455,0.0,0.0,0.0,0.019999999552965164,0.0,0.0,0.0,0.019999999552965164,0.0,0.0,0.0,0.019999999552965164,0.304063618183136,-0.23523031175136566,9.66958236694336,0.03999999910593033,0.0,0.0,0.0,0.03999999910593033,0.0,0.0,0.0,0.03999999910593033
1779691676806966360,382803,1779691676783547626,imu_link,-0.010881300084292889,-0.01578306220471859,0.08369848877191544,0.9963024258613586,0.0024999999441206455,0.0,0.0,0.0,0.0024999999441206455,0.0,0.0,0.0,0.0024999999441206455,0.0,0.0,0.0,0.019999999552965164,0.0,0.0,0.0,0.019999999552965164,0.0,0.0,0.0,0.019999999552965164,0.2902969419956207,-0.23283611238002777,9.642646789550781,0.03999999910593033,0.0,0.0,0.0,0.03999999910593033,0.0,0.0,0.0,0.03999999910593033
1779691676832336220,382804,1779691676792547626,imu_link,-0.011342751793563366,-0.016363471746444702,0.08369824290275574,0.9962879419326782,0.0024999999441206455,0.0,0.0,0.0,0.0024999999441206455,0.0,0.0,0.0,0.0024999999441206455,0.0,0.0,0.0,0.019999999552965164,0.0,0.0,0.0,0.019999999552965164,0.0,0.0,0.0,0.019999999552965164,0.30047231912612915,-0.24839842319488525,9.655815124511719,0.03999999910593033,0.0,0.0,0.0,0.03999999910593033,0.0,0.0,0.0,0.03999999910593033
1779691676840687322,382805,1779691676795547626,imu_link,-0.01116089429706335,-0.01702205091714859,0.08368708193302155,0.9962798953056335,0.0024999999441206455,0.0,0.0,0.0,0.0024999999441206455,0.0,0.0,0.0,0.0024999999441206455,0.0,0.0,0.0,0.019999999552965164,0.0,0.0,0.0,0.019999999552965164,0.0,0.0,0.0,0.019999999552965164,0.3381809890270233,-0.23523031175136566,9.595361709594727,0.03999999910593033,0.0,0.0,0.0,0.03999999910593033,0.0,0.0,0.0,0.03999999910593033
1779691676863826320,382806,1779691676844547626,imu_link,-0.011972283013164997,-0.012597618624567986,0.0837547704577446,0.9963305592536926,0.0024999999441206455,0.0,0.0,0.0,0.0024999999441206455,0.0,0.0,0.0,0.0024999999441206455,0.0,0.0,0.0,0.019999999552965164,0.0,0.0,0.0,0.019999999552965164,0.0,0.0,0.0,0.019999999552965164,0.2885012924671173,-0.24420857429504395,9.645041465759277,0.03999999910593033,0.0,0.0,0.0,0.03999999910593033,0.0,0.0,0.0,0.03999999910593033
1779691676871683286,382807,1779691676847547626,imu_link,-0.011891734786331654,-0.013279186561703682,0.08374496549367905,0.9963234663009644,0.0024999999441206455,0.0,0.0,0.0,0.0024999999441206455,0.0,0.0,0.0,0.0024999999441206455,0.0,0.0,0.0,0.019999999552965164,0.0,0.0,0.0,0.019999999552965164,0.0,0.0,0.0,0.019999999552965164,0.31783026456832886,-0.2472013235092163,9.636661529541016,0.03999999910593033,0.0,0.0,0.0,0.03999999910593033,0.0,0.0,0.0,0.03999999910593033
1779691676877139973,382808,1779691676854547626,imu_link,-0.01177649199962616,-0.014011147432029247,0.08373405039310455,0.9963157773017883,0.0024999999441206455,0.0,0.0,0.0,0.0024999999441206455,0.0,0.0,0.0,0.0024999999441206455,0.0,0.0,0.0,0.019999999552965164,0.0,0.0,0.0,0.019999999552965164,0.0,0.0,0.0,0.019999999552965164,0.2651578485965729,-0.24899697303771973,9.678560256958008,0.03999999910593033,0.0,0.0,0.0,0.03999999910593033,0.0,0.0,0.0,0.03999999910593033
1779691676883787527,382809,1779691676859547626,imu_link,-0.01177649199962616,-0.014011147432029247,0.08373405039310455,0.9963157773017883,0.0024999999441206455,0.0,0.0,0.0,0.0024999999441206455,0.0,0.0,0.0,0.0024999999441206455,0.0,0.0,0.0,0.019999999552965164,0.0,0.0,0.0,0.019999999552965164,0.0,0.0,0.0,0.019999999552965164,0.2651578485965729,-0.24899697303771973,9.678560256958008,0.03999999910593033,0.0,0.0,0.0,0.03999999910593033,0.0,0.0,0.0,0.03999999910593033
1779691676890399258,382810,1779691676864547626,imu_link,-0.011585230939090252,-0.014733033254742622,0.08372222632169724,0.9963085651397705,0.0024999999441206455,0.0,0.0,0.0,0.0024999999441206455,0.0,0.0,0.0,0.0024999999441206455,0.0,0.0,0.0,0.019999999552965164,0.0,0.0,0.0,0.019999999552965164,0.0,0.0,0.0,0.019999999552965164,0.304063618183136,-0.23942016065120697,9.637260437011719,0.03999999910593033,0.0,0.0,0.0,0.03999999910593033,0.0,0.0,0.0,0.03999999910593033
1779691676896369457,382811,1779691676869547626,imu_link,-0.011050466448068619,-0.015247069299221039,0.08370830118656158,0.9963080286979675,0.0024999999441206455,0.0,0.0,0.0,0.0024999999441206455,0.0,0.0,0.0,0.0024999999441206455,0.0,0.0,0.0,0.019999999552965164,0.0,0.0,0.0,0.019999999552965164,0.0,0.0,0.0,0.019999999552965164,0.2885012924671173,-0.22685061395168304,9.66958236694336,0.03999999910593033,0.0,0.0,0.0,0.03999999910593033,0.0,0.0,0.0,0.03999999910593033
1779691676920278792,382812,1779691676878547626,imu_link,-0.011050466448068619,-0.015247069299221039,0.08370830118656158,0.9963080286979675,0.0024999999441206455,0.0,0.0,0.0,0.0024999999441206455,0.0,0.0,0.0,0.0024999999441206455,0.0,0.0,0.0,0.019999999552965164,0.0,0.0,0.0,0.019999999552965164,0.0,0.0,0.0,0.019999999552965164,0.2885012924671173,-0.22685061395168304,9.66958236694336,0.03999999910593033,0.0,0.0,0.0,0.03999999910593033,0.0,0.0,0.0,0.03999999910593033
1779691676927029442,382813,1779691676881547626,imu_link,-0.010698143392801285,-0.01637025736272335,0.08368941396474838,0.9962956309318542,0.0024999999441206455,0.0,0.0,0.0,0.0024999999441206455,0.0,0.0,0.0,0.0024999999441206455,0.0,0.0,0.0,0.019999999552965164,0.0,0.0,0.0,0.019999999552965164,0.0,0.0,0.0,0.019999999552965164,0.3034650683403015,-0.23104046285152435,9.649829864501953,0.03999999910593033,0.0,0.0,0.0,0.03999999910593033,0.0,0.0,0.0,0.03999999910593033
1779691676950681920,382814,1779691676937547626,imu_link,-0.012565872631967068,-0.02122350223362446,0.08365868777036667,0.9961850047111511,0.0024999999441206455,0.0,0.0,0.0,0.0024999999441206455,0.0,0.0,0.0,0.0024999999441206455,0.0,0.0,0.0,0.019999999552965164,0.0,0.0,0.0,0.019999999552965164,0.0,0.0,0.0,0.019999999552965164,0.3076549172401428,-0.23702596127986908,9.637260437011719,0.03999999910593033,0.0,0.0,0.0,0.03999999910593033,0.0,0.0,0.0,0.03999999910593033
1779691676957219122,382815,1779691676940547626,imu_link,-0.012323816306889057,-0.020582040771842003,0.0836629569530487,0.9962009787559509,0.0024999999441206455,0.0,0.0,0.0,0.0024999999441206455,0.0,0.0,0.0,0.0024999999441206455,0.0,0.0,0.0,0.019999999552965164,0.0,0.0,0.0,0.019999999552965164,0.0,0.0,0.0,0.019999999552965164,0.29867666959762573,-0.23343466222286224,9.642048835754395,0.03999999910593033,0.0,0.0,0.0,0.03999999910593033,0.0,0.0,0.0,0.03999999910593033
1779691676963412397,382816,1779691676945547626,imu_link,-0.012323816306889057,-0.020582040771842003,0.0836629569530487,0.9962009787559509,0.0024999999441206455,0.0,0.0,0.0,0.0024999999441206455,0.0,0.0,0.0,0.0024999999441206455,0.0,0.0,0.0,0.019999999552965164,0.0,0.0,0.0,0.019999999552965164,0.0,0.0,0.0,0.019999999552965164,0.29867666959762573,-0.23343466222286224,9.642048835754395,0.03999999910593033,0.0,0.0,0.0,0.03999999910593033,0.0,0.0,0.0,0.03999999910593033
1779691676969386699,382817,1779691676952547626,imu_link,-0.012082342058420181,-0.01987631618976593,0.08366812020540237,0.9962179064750671,0.0024999999441206455,0.0,0.0,0.0,0.0024999999441206455,0.0,0.0,0.0,0.0024999999441206455,0.0,0.0,0.0,0.019999999552965164,0.0,0.0,0.0,0.019999999552965164,0.0,0.0,0.0,0.019999999552965164,0.32441431283950806,-0.24779987335205078,9.656414031982422,0.03999999910593033,0.0,0.0,0.0,0.03999999910593033,0.0,0.0,0.0,0.03999999910593033
1779691676975029132,382818,1779691676957547626,imu_link,-0.012033108621835709,-0.019137155264616013,0.08367729187011719,0.9962320327758789,0.0024999999441206455,0.0,0.0,0.0,0.0024999999441206455,0.0,0.0,0.0,0.0024999999441206455,0.0,0.0,0.0,0.019999999552965164,0.0,0.0,0.0,0.019999999552965164,0.0,0.0,0.0,0.019999999552965164,0.31842881441116333,-0.25737667083740234,9.625288963317871,0.03999999910593033,0.0,0.0,0.0,0.03999999910593033,0.0,0.0,0.0,0.03999999910593033
1779691676980484091,382819,1779691676962547626,imu_link,-0.011759345419704914,-0.018448466435074806,0.08368169516324997,0.9962480068206787,0.0024999999441206455,0.0,0.0,0.0,0.0024999999441206455,0.0,0.0,0.0,0.0024999999441206455,0.0,0.0,0.0,0.019999999552965164,0.0,0.0,0.0,0.019999999552965164,0.0,0.0,0.0,0.019999999552965164,0.2885012924671173,-0.2322375625371933,9.627084732055664,0.03999999910593033,0.0,0.0,0.0,0.03999999910593033,0.0,0.0,0.0,0.03999999910593033
1779691677008274440,382820,1779691676971547626,imu_link,-0.011759345419704914,-0.018448466435074806,0.08368169516324997,0.9962480068206787,0.0024999999441206455,0.0,0.0,0.0,0.0024999999441206455,0.0,0.0,0.0,0.0024999999441206455,0.0,0.0,0.0,0.019999999552965164,0.0,0.0,0.0,0.019999999552965164,0.0,0.0,0.0,0.019999999552965164,0.2885012924671173,-0.2322375625371933,9.627084732055664,0.03999999910593033,0.0,0.0,0.0,0.03999999910593033,0.0,0.0,0.0,0.03999999910593033
1779691677014380214,382821,1779691676974547626,imu_link,-0.011849586851894855,-0.01727507822215557,0.08369878679513931,0.9962666630744934,0.0024999999441206455,0.0,0.0,0.0,0.0024999999441206455,0.0,0.0,0.0,0.0024999999441206455,0.0,0.0,0.0,0.019999999552965164,0.0,0.0,0.0,0.019999999552965164,0.0,0.0,0.0,0.019999999552965164,0.2908954918384552,-0.2555810213088989,9.641449928283691,0.03999999910593033,0.0,0.0,0.0,0.03999999910593033,0.0,0.0,0.0,0.03999999910593033
1779691677036535797,382822,1779691677021547626,imu_link,-0.009576578624546528,-0.013623159378767014,0.08370953798294067,0.9963467121124268,0.0024999999441206455,0.0,0.0,0.0,0.0024999999441206455,0.0,0.0,0.0,0.0024999999441206455,0.0,0.0,0.0,0.019999999552965164,0.0,0.0,0.0,0.019999999552965164,0.0,0.0,0.0,0.019999999552965164,0.29448679089546204,-0.24181437492370605,9.591172218322754,0.03999999910593033,0.0,0.0,0.0,0.03999999910593033,0.0,0.0,0.0,0.03999999910593033
1779691677042537490,382823,1779691677024547626,imu_link,-0.009860413148999214,-0.01424869429320097,0.08370646089315414,0.9963354468345642,0.0024999999441206455,0.0,0.0,0.0,0.0024999999441206455,0.0,0.0,0.0,0.0024999999441206455,0.0,0.0,0.0,0.019999999552965164,0.0,0.0,0.0,0.019999999552965164,0.0,0.0,0.0,0.019999999552965164,0.3232172131538391,-0.24899697303771973,9.634865760803223,0.03999999910593033,0.0,0.0,0.0,0.03999999910593033,0.0,0.0,0.0,0.03999999910593033
1779691677048097555,382824,1779691677029547626,imu_link,-0.009860413148999214,-0.01424869429320097,0.08370646089315414,0.9963354468345642,0.0024999999441206455,0.0,0.0,0.0,0.0024999999441206455,0.0,0.0,0.0,0.0024999999441206455,0.0,0.0,0.0,0.019999999552965164,0.0,0.0,0.0,0.019999999552965164,0.0,0.0,0.0,0.019999999552965164,0.3232172131538391,-0.24899697303771973,9.634865760803223,0.03999999910593033,0.0,0.0,0.0,0.03999999910593033,0.0,0.0,0.0,0.03999999910593033
1779691677053483793,382825,1779691677034547626,imu_link,-0.010074756108224392,-0.014963405206799507,0.08370143175125122,0.99632328748703,0.0024999999441206455,0.0,0.0,0.0,0.0024999999441206455,0.0,0.0,0.0,0.0024999999441206455,0.0,0.0,0.0,0.019999999552965164,0.0,0.0,0.0,0.019999999552965164,0.0,0.0,0.0,0.019999999552965164,0.3363853394985199,-0.243011474609375,9.602544784545898,0.03999999910593033,0.0,0.0,0.0,0.03999999910593033,0.0,0.0,0.0,0.03999999910593033
1779691677059078796,382826,1779691677041547626,imu_link,-0.010350113734602928,-0.015652090311050415,0.08369750529527664,0.9963101744651794,0.0024999999441206455,0.0,0.0,0.0,0.0024999999441206455,0.0,0.0,0.0,0.0024999999441206455,0.0,0.0,0.0,0.019999999552965164,0.0,0.0,0.0,0.019999999552965164,0.0,0.0,0.0,0.019999999552965164,0.295683890581131,-0.23044191300868988,9.691728591918945,0.03999999910593033,0.0,0.0,0.0,0.03999999910593033,0.0,0.0,0.0,0.03999999910593033
1779691677064970174,382827,1779691677046547626,imu_link,-0.010698352940380573,-0.01630585268139839,0.08369500935077667,0.996296226978302,0.0024999999441206455,0.0,0.0,0.0,0.0024999999441206455,0.0,0.0,0.0,0.0024999999441206455,0.0,0.0,0.0,0.019999999552965164,0.0,0.0,0.0,0.019999999552965164,0.0,0.0,0.0,0.019999999552965164,0.2885012924671173,-0.22685061395168304,9.596558570861816,0.03999999910593033,0.0,0.0,0.0,0.03999999910593033,0.0,0.0,0.0,0.03999999910593033
1779691677090594017,382828,1779691677055547626,imu_link,-0.010698352940380573,-0.01630585268139839,0.08369500935077667,0.996296226978302,0.0024999999441206455,0.0,0.0,0.0,0.0024999999441206455,0.0,0.0,0.0,0.0024999999441206455,0.0,0.0,0.0,0.019999999552965164,0.0,0.0,0.0,0.019999999552965164,0.0,0.0,0.0,0.019999999552965164,0.2885012924671173,-0.22685061395168304,9.596558570861816,0.03999999910593033,0.0,0.0,0.0,0.03999999910593033,0.0,0.0,0.0,0.03999999910593033
1779691677097860144,382829,1779691677058547626,imu_link,-0.011733509600162506,-0.016865218058228493,0.08370412141084671,0.9962745308876038,0.0024999999441206455,0.0,0.0,0.0,0.0024999999441206455,0.0,0.0,0.0,0.0024999999441206455,0.0,0.0,0.0,0.019999999552965164,0.0,0.0,0.0,0.019999999552965164,0.0,0.0,0.0,0.019999999552965164,0.3076549172401428,-0.2579752206802368,9.646238327026367,0.03999999910593033,0.0,0.0,0.0,0.03999999910593033,0.0,0.0,0.0,0.03999999910593033
1779691677122342606,382830,1779691677109547626,imu_link,-0.014204766601324081,-0.02085951156914234,0.08368995785713196,0.9961679577827454,0.0024999999441206455,0.0,0.0,0.0,0.0024999999441206455,0.0,0.0,0.0,0.0024999999441206455,0.0,0.0,0.0,0.019999999552965164,0.0,0.0,0.0,0.019999999552965164,0.0,0.0,0.0,0.019999999552965164,0.3058592677116394,-0.25318682193756104,9.618704795837402,0.03999999910593033,0.0,0.0,0.0,0.03999999910593033,0.0,0.0,0.0,0.03999999910593033
1779691677128805918,382831,1779691677112547626,imu_link,-0.013821127824485302,-0.020287638530135155,0.08369150757789612,0.9961850047111511,0.0024999999441206455,0.0,0.0,0.0,0.0024999999441206455,0.0,0.0,0.0,0.0024999999441206455,0.0,0.0,0.0,0.019999999552965164,0.0,0.0,0.0,0.019999999552965164,0.0,0.0,0.0,0.019999999552965164,0.3058592677116394,-0.24899697303771973,9.624691009521484,0.03999999910593033,0.0,0.0,0.0,0.03999999910593033,0.0,0.0,0.0,0.03999999910593033
1779691677135466006,382832,1779691677117547626,imu_link,-0.013821127824485302,-0.020287638530135155,0.08369150757789612,0.9961850047111511,0.0024999999441206455,0.0,0.0,0.0,0.0024999999441206455,0.0,0.0,0.0,0.0024999999441206455,0.0,0.0,0.0,0.019999999552965164,0.0,0.0,0.0,0.019999999552965164,0.0,0.0,0.0,0.019999999552965164,0.3058592677116394,-0.24899697303771973,9.624691009521484,0.03999999910593033,0.0,0.0,0.0,0.03999999910593033,0.0,0.0,0.0,0.03999999910593033
1779691677140321198,382833,1779691677122547626,imu_link,-0.01337496843189001,-0.01968987099826336,0.08369222283363342,0.9962029457092285,0.0024999999441206455,0.0,0.0,0.0,0.0024999999441206455,0.0,0.0,0.0,0.0024999999441206455,0.0,0.0,0.0,0.019999999552965164,0.0,0.0,0.0,0.019999999552965164,0.0,0.0,0.0,0.019999999552965164,0.29209259152412415,-0.23163901269435883,9.586981773376465,0.03999999910593033,0.0,0.0,0.0,0.03999999910593033,0.0,0.0,0.0,0.03999999910593033
1779691677146238772,382834,1779691677127547626,imu_link,-0.012861722148954868,-0.019154705107212067,0.08369073271751404,0.9962204098701477,0.0024999999441206455,0.0,0.0,0.0,0.0024999999441206455,0.0,0.0,0.0,0.0024999999441206455,0.0,0.0,0.0,0.019999999552965164,0.0,0.0,0.0,0.019999999552965164,0.0,0.0,0.0,0.019999999552965164,0.30286651849746704,-0.228047713637352,9.602544784545898,0.03999999910593033,0.0,0.0,0.0,0.03999999910593033,0.0,0.0,0.0,0.03999999910593033
1779691677152710981,382835,1779691677134547626,imu_link,-0.012498032301664352,-0.018509607762098312,0.08369345217943192,0.9962368607521057,0.0024999999441206455,0.0,0.0,0.0,0.0024999999441206455,0.0,0.0,0.0,0.0024999999441206455,0.0,0.0,0.0,0.019999999552965164,0.0,0.0,0.0,0.019999999552965164,0.0,0.0,0.0,0.019999999552965164,0.2932896912097931,-0.2412158101797104,9.607931137084961,0.03999999910593033,0.0,0.0,0.0,0.03999999910593033,0.0,0.0,0.0,0.03999999910593033
1779691677179048735,382836,1779691677143547626,imu_link,-0.012498032301664352,-0.018509607762098312,0.08369345217943192,0.9962368607521057,0.0024999999441206455,0.0,0.0,0.0,0.0024999999441206455,0.0,0.0,0.0,0.0024999999441206455,0.0,0.0,0.0,0.019999999552965164,0.0,0.0,0.0,0.019999999552965164,0.0,0.0,0.0,0.019999999552965164,0.2932896912097931,-0.2412158101797104,9.607931137084961,0.03999999910593033,0.0,0.0,0.0,0.03999999910593033,0.0,0.0,0.0,0.03999999910593033
1779691677184010660,382837,1779691677146547626,imu_link,-0.011640164069831371,-0.017703378573060036,0.08368976414203644,0.9962623119354248,0.0024999999441206455,0.0,0.0,0.0,0.0024999999441206455,0.0,0.0,0.0,0.0024999999441206455,0.0,0.0,0.0,0.019999999552965164,0.0,0.0,0.0,0.019999999552965164,0.0,0.0,0.0,0.019999999552965164,0.3034650683403015,-0.2298433631658554,9.623493194580078,0.03999999910593033,0.0,0.0,0.0,0.03999999910593033,0.0,0.0,0.0,0.03999999910593033
1779691677190767560,382838,1779691677151547626,imu_link,-0.011640164069831371,-0.017703378573060036,0.08368976414203644,0.9962623119354248,0.0024999999441206455,0.0,0.0,0.0,0.0024999999441206455,0.0,0.0,0.0,0.0024999999441206455,0.0,0.0,0.0,0.019999999552965164,0.0,0.0,0.0,0.019999999552965164,0.0,0.0,0.0,0.019999999552965164,0.3034650683403015,-0.2298433631658554,9.623493194580078,0.03999999910593033,0.0,0.0,0.0,0.03999999910593033,0.0,0.0,0.0,0.03999999910593033
1779691677196733363,382839,1779691677156547626,imu_link,-0.011360017582774162,-0.01701325736939907,0.08369409292936325,0.9962771534919739,0.0024999999441206455,0.0,0.0,0.0,0.0024999999441206455,0.0,0.0,0.0,0.0024999999441206455,0.0,0.0,0.0,0.019999999552965164,0.0,0.0,0.0,0.019999999552965164,0.0,0.0,0.0,0.019999999552965164,0.29388824105262756,-0.23822306096553802,9.627683639526367,0.03999999910593033,0.0,0.0,0.0,0.03999999910593033,0.0,0.0,0.0,0.03999999910593033
1779691677220631018,382840,1779691677209547626,imu_link,-0.010012589395046234,-0.012041650712490082,0.08373478055000305,0.9963605999946594,0.0024999999441206455,0.0,0.0,0.0,0.0024999999441206455,0.0,0.0,0.0,0.0024999999441206455,0.0,0.0,0.0,0.019999999552965164,0.0,0.0,0.0,0.019999999552965164,0.0,0.0,0.0,0.019999999552965164,0.27712884545326233,-0.23403321206569672,9.615114212036133,0.03999999910593033,0.0,0.0,0.0,0.03999999910593033,0.0,0.0,0.0,0.03999999910593033
1779691677226804449,382841,1779691677212547626,imu_link,-0.010244838893413544,-0.012691814452409744,0.08373021334409714,0.9963506460189819,0.0024999999441206455,0.0,0.0,0.0,0.0024999999441206455,0.0,0.0,0.0,0.0024999999441206455,0.0,0.0,0.0,0.019999999552965164,0.0,0.0,0.0,0.019999999552965164,0.0,0.0,0.0,0.019999999552965164,0.2932896912097931,-0.2472013235092163,9.623493194580078,0.03999999910593033,0.0,0.0,0.0,0.03999999910593033,0.0,0.0,0.0,0.03999999910593033
1779691677232709321,382842,1779691677217547626,imu_link,-0.010244838893413544,-0.012691814452409744,0.08373021334409714,0.9963506460189819,0.0024999999441206455,0.0,0.0,0.0,0.0024999999441206455,0.0,0.0,0.0,0.0024999999441206455,0.0,0.0,0.0,0.019999999552965164,0.0,0.0,0.0,0.019999999552965164,0.0,0.0,0.0,0.019999999552965164,0.2932896912097931,-0.2472013235092163,9.623493194580078,0.03999999910593033,0.0,0.0,0.0,0.03999999910593033,0.0,0.0,0.0,0.03999999910593033
1779691677239950202,382843,1779691677222547626,imu_link,-0.010570920072495937,-0.013362888246774673,0.08372647315263748,0.9963387846946716,0.0024999999441206455,0.0,0.0,0.0,0.0024999999441206455,0.0,0.0,0.0,0.0024999999441206455,0.0,0.0,0.0,0.019999999552965164,0.0,0.0,0.0,0.019999999552965164,0.0,0.0,0.0,0.019999999552965164,0.30047231912612915,-0.2609679698944092,9.654618263244629,0.03999999910593033,0.0,0.0,0.0,0.03999999910593033,0.0,0.0,0.0,0.03999999910593033
1779691677244072922,382844,1779691677227547626,imu_link,-0.01063967403024435,-0.014101363718509674,0.08371870219707489,0.9963285326957703,0.0024999999441206455,0.0,0.0,0.0,0.0024999999441206455,0.0,0.0,0.0,0.0024999999441206455,0.0,0.0,0.0,0.019999999552965164,0.0,0.0,0.0,0.019999999552965164,0.0,0.0,0.0,0.019999999552965164,0.29209259152412415,-0.23343466222286224,9.603741645812988,0.03999999910593033,0.0,0.0,0.0,0.03999999910593033,0.0,0.0,0.0,0.03999999910593033
1779691677250219306,382845,1779691677234547626,imu_link,-0.010548967868089676,-0.014837118797004223,0.08370881527662277,0.9963196516036987,0.0024999999441206455,0.0,0.0,0.0,0.0024999999441206455,0.0,0.0,0.0,0.0024999999441206455,0.0,0.0,0.0,0.019999999552965164,0.0,0.0,0.0,0.019999999552965164,0.0,0.0,0.0,0.019999999552965164,0.304063618183136,-0.22625206410884857,9.676764488220215,0.03999999910593033,0.0,0.0,0.0,0.03999999910593033,0.0,0.0,0.0,0.03999999910593033
1779691677275447064,382846,1779691677243547626,imu_link,-0.010548967868089676,-0.014837118797004223,0.08370881527662277,0.9963196516036987,0.0024999999441206455,0.0,0.0,0.0,0.0024999999441206455,0.0,0.0,0.0,0.0024999999441206455,0.0,0.0,0.0,0.019999999552965164,0.0,0.0,0.0,0.019999999552965164,0.0,0.0,0.0,0.019999999552965164,0.304063618183136,-0.22625206410884857,9.676764488220215,0.03999999910593033,0.0,0.0,0.0,0.03999999910593033,0.0,0.0,0.0,0.03999999910593033
1779691677282362218,382847,1779691677246547626,imu_link,-0.010472137480974197,-0.01601269096136093,0.08369386196136475,0.9963034987449646,0.0024999999441206455,0.0,0.0,0.0,0.0024999999441206455,0.0,0.0,0.0,0.0024999999441206455,0.0,0.0,0.0,0.019999999552965164,0.0,0.0,0.0,0.019999999552965164,0.0,0.0,0.0,0.019999999552965164,0.31603461503982544,-0.22744916379451752,9.63187313079834,0.03999999910593033,0.0,0.0,0.0,0.03999999910593033,0.0,0.0,0.0,0.03999999910593033
1779691677288633578,382848,1779691677251547626,imu_link,-0.010472137480974197,-0.01601269096136093,0.08369386196136475,0.9963034987449646,0.0024999999441206455,0.0,0.0,0.0,0.0024999999441206455,0.0,0.0,0.0,0.0024999999441206455,0.0,0.0,0.0,0.019999999552965164,0.0,0.0,0.0,0.019999999552965164,0.0,0.0,0.0,0.019999999552965164,0.31603461503982544,-0.22744916379451752,9.63187313079834,0.03999999910593033,0.0,0.0,0.0,0.03999999910593033,0.0,0.0,0.0,0.03999999910593033
1779691677293951774,382849,1779691677256547626,imu_link,-0.010828915983438492,-0.016667155548930168,0.08369151502847672,0.9962891936302185,0.0024999999441206455,0.0,0.0,0.0,0.0024999999441206455,0.0,0.0,0.0,0.0024999999441206455,0.0,0.0,0.0,0.019999999552965164,0.0,0.0,0.0,0.019999999552965164,0.0,0.0,0.0,0.019999999552965164,0.3100491166114807,-0.24001871049404144,9.702502250671387,0.03999999910593033,0.0,0.0,0.0,0.03999999910593033,0.0,0.0,0.0,0.03999999910593033
1779691677317649871,382850,1779691677300547626,imu_link,-0.014796853996813297,-0.015136942267417908,0.0837717279791832,0.9962558746337891,0.0024999999441206455,0.0,0.0,0.0,0.0024999999441206455,0.0,0.0,0.0,0.0024999999441206455,0.0,0.0,0.0,0.019999999552965164,0.0,0.0,0.0,0.019999999552965164,0.0,0.0,0.0,0.019999999552965164,0.29628247022628784,-0.24899697303771973,9.642646789550781,0.03999999910593033,0.0,0.0,0.0,0.03999999910593033,0.0,0.0,0.0,0.03999999910593033
1779691677324113901,382851,1779691677303547626,imu_link,-0.01417990680783987,-0.015447928570210934,0.08375817537307739,0.9962611794471741,0.0024999999441206455,0.0,0.0,0.0,0.0024999999441206455,0.0,0.0,0.0,0.0024999999441206455,0.0,0.0,0.0,0.019999999552965164,0.0,0.0,0.0,0.019999999552965164,0.0,0.0,0.0,0.019999999552965164,0.29388824105262756,-0.26396071910858154,9.622895240783691,0.03999999910593033,0.0,0.0,0.0,0.03999999910593033,0.0,0.0,0.0,0.03999999910593033
1779691677329977761,382852,1779691677308547626,imu_link,-0.01417990680783987,-0.015447928570210934,0.08375817537307739,0.9962611794471741,0.0024999999441206455,0.0,0.0,0.0,0.0024999999441206455,0.0,0.0,0.0,0.0024999999441206455,0.0,0.0,0.0,0.019999999552965164,0.0,0.0,0.0,0.019999999552965164,0.0,0.0,0.0,0.019999999552965164,0.29388824105262756,-0.26396071910858154,9.622895240783691,0.03999999910593033,0.0,0.0,0.0,0.03999999910593033,0.0,0.0,0.0,0.03999999910593033
1779691677335654613,382853,1779691677313547626,imu_link,-0.013433672487735748,-0.015462066046893597,0.08374732732772827,0.9962721467018127,0.0024999999441206455,0.0,0.0,0.0,0.0024999999441206455,0.0,0.0,0.0,0.0024999999441206455,0.0,0.0,0.0,0.019999999552965164,0.0,0.0,0.0,0.019999999552965164,0.0,0.0,0.0,0.019999999552965164,0.28072014451026917,-0.23104046285152435,9.634267807006836,0.03999999910593033,0.0,0.0,0.0,0.03999999910593033,0.0,0.0,0.0,0.03999999910593033
1779691677341257853,382854,1779691677318547626,imu_link,-0.012739169411361217,-0.01572292670607567,0.08373355865478516,0.9962783455848694,0.0024999999441206455,0.0,0.0,0.0,0.0024999999441206455,0.0,0.0,0.0,0.0024999999441206455,0.0,0.0,0.0,0.019999999552965164,0.0,0.0,0.0,0.019999999552965164,0.0,0.0,0.0,0.019999999552965164,0.29867666959762573,-0.23523031175136566,9.648633003234863,0.03999999910593033,0.0,0.0,0.0,0.03999999910593033,0.0,0.0,0.0,0.03999999910593033
1779691677347527357,382855,1779691677325547626,imu_link,-0.011998046189546585,-0.015696268528699875,0.08372309803962708,0.9962889552116394,0.0024999999441206455,0.0,0.0,0.0,0.0024999999441206455,0.0,0.0,0.0,0.0024999999441206455,0.0,0.0,0.0,0.019999999552965164,0.0,0.0,0.0,0.019999999552965164,0.0,0.0,0.0,0.019999999552965164,0.28371289372444153,-0.23104046285152435,9.64564037322998,0.03999999910593033,0.0,0.0,0.0,0.03999999910593033,0.0,0.0,0.0,0.03999999910593033
1779691677372192940,382856,1779691677334547626,imu_link,-0.011998046189546585,-0.015696268528699875,0.08372309803962708,0.9962889552116394,0.0024999999441206455,0.0,0.0,0.0,0.0024999999441206455,0.0,0.0,0.0,0.0024999999441206455,0.0,0.0,0.0,0.019999999552965164,0.0,0.0,0.0,0.019999999552965164,0.0,0.0,0.0,0.019999999552965164,0.28371289372444153,-0.23104046285152435,9.64564037322998,0.03999999910593033,0.0,0.0,0.0,0.03999999910593033,0.0,0.0,0.0,0.03999999910593033
1779691677378692833,382857,1779691677337547626,imu_link,-0.011334621347486973,-0.016670722514390945,0.08370038866996765,0.9962827563285828,0.0024999999441206455,0.0,0.0,0.0,0.0024999999441206455,0.0,0.0,0.0,0.0024999999441206455,0.0,0.0,0.0,0.019999999552965164,0.0,0.0,0.0,0.019999999552965164,0.0,0.0,0.0,0.019999999552965164,0.3232172131538391,-0.22924481332302094,9.554061889648438,0.03999999910593033,0.0,0.0,0.0,0.03999999910593033,0.0,0.0,0.0,0.03999999910593033
1779691677405565958,382858,1779691677384547626,imu_link,-0.007489302195608616,-0.014752892777323723,0.08366371691226959,0.9963523745536804,0.0024999999441206455,0.0,0.0,0.0,0.0024999999441206455,0.0,0.0,0.0,0.0024999999441206455,0.0,0.0,0.0,0.019999999552965164,0.0,0.0,0.0,0.019999999552965164,0.0,0.0,0.0,0.019999999552965164,0.2861070930957794,-0.2041056901216507,9.647435188293457,0.03999999910593033,0.0,0.0,0.0,0.03999999910593033,0.0,0.0,0.0,0.03999999910593033
1779691677413026939,382859,1779691677387547626,imu_link,-0.008064641617238522,-0.015137938782572746,0.08366844803094864,0.9963417053222656,0.0024999999441206455,0.0,0.0,0.0,0.0024999999441206455,0.0,0.0,0.0,0.0024999999441206455,0.0,0.0,0.0,0.019999999552965164,0.0,0.0,0.0,0.019999999552965164,0.0,0.0,0.0,0.019999999552965164,0.31783026456832886,-0.25258827209472656,9.603741645812988,0.03999999910593033,0.0,0.0,0.0,0.03999999910593033,0.0,0.0,0.0,0.03999999910593033
1779691677418697501,382860,1779691677392547626,imu_link,-0.008490086533129215,-0.015401747077703476,0.08367211371660233,0.9963338375091553,0.0024999999441206455,0.0,0.0,0.0,0.0024999999441206455,0.0,0.0,0.0,0.0024999999441206455,0.0,0.0,0.0,0.019999999552965164,0.0,0.0,0.0,0.019999999552965164,0.0,0.0,0.0,0.019999999552965164,0.314238965511322,-0.25079262256622314,9.635464668273926,0.03999999910593033,0.0,0.0,0.0,0.03999999910593033,0.0,0.0,0.0,0.03999999910593033
1779691677424391992,382861,1779691677397547626,imu_link,-0.008490086533129215,-0.015401747077703476,0.08367211371660233,0.9963338375091553,0.0024999999441206455,0.0,0.0,0.0,0.0024999999441206455,0.0,0.0,0.0,0.0024999999441206455,0.0,0.0,0.0,0.019999999552965164,0.0,0.0,0.0,0.019999999552965164,0.0,0.0,0.0,0.019999999552965164,0.314238965511322,-0.25079262256622314,9.635464668273926,0.03999999910593033,0.0,0.0,0.0,0.03999999910593033,0.0,0.0,0.0,0.03999999910593033
1779691677430449696,382862,1779691677402547626,imu_link,-0.008967242203652859,-0.015975341200828552,0.08367347717285156,0.9963205456733704,0.0024999999441206455,0.0,0.0,0.0,0.0024999999441206455,0.0,0.0,0.0,0.0024999999441206455,0.0,0.0,0.0,0.019999999552965164,0.0,0.0,0.0,0.019999999552965164,0.0,0.0,0.0,0.019999999552965164,0.3214215636253357,-0.22625206410884857,9.66958236694336,0.03999999910593033,0.0,0.0,0.0,0.03999999910593033,0.0,0.0,0.0,0.03999999910593033
1779691677435766442,382863,1779691677407547626,imu_link,-0.009709575213491917,-0.015971006825566292,0.0836847648024559,0.9963127374649048,0.0024999999441206455,0.0,0.0,0.0,0.0024999999441206455,0.0,0.0,0.0,0.0024999999441206455,0.0,0.0,0.0,0.019999999552965164,0.0,0.0,0.0,0.019999999552965164,0.0,0.0,0.0,0.019999999552965164,0.2885012924671173,-0.23283611238002777,9.60912799835205,0.03999999910593033,0.0,0.0,0.0,0.03999999910593033,0.0,0.0,0.0,0.03999999910593033
1779691677460392504,382864,1779691677418547626,imu_link,-0.010363534092903137,-0.01631980761885643,0.08369076997041702,0.9962998628616333,0.0024999999441206455,0.0,0.0,0.0,0.0024999999441206455,0.0,0.0,0.0,0.0024999999441206455,0.0,0.0,0.0,0.019999999552965164,0.0,0.0,0.0,0.019999999552965164,0.0,0.0,0.0,0.019999999552965164,0.30466216802597046,-0.24420857429504395,9.623493194580078,0.03999999910593033,0.0,0.0,0.0,0.03999999910593033,0.0,0.0,0.0,0.03999999910593033
1779691677466550971,382865,1779691677421547626,imu_link,-0.011003605090081692,-0.016555052250623703,0.08369787037372589,0.9962886571884155,0.0024999999441206455,0.0,0.0,0.0,0.0024999999441206455,0.0,0.0,0.0,0.0024999999441206455,0.0,0.0,0.0,0.019999999552965164,0.0,0.0,0.0,0.019999999552965164,0.0,0.0,0.0,0.019999999552965164,0.3064578175544739,-0.25677812099456787,9.676165580749512,0.03999999910593033,0.0,0.0,0.0,0.03999999910593033,0.0,0.0,0.0,0.03999999910593033
1779691677491312207,382866,1779691677481152816,imu_link,-0.008164186030626297,-0.012331372126936913,0.08370471000671387,0.9963764548301697,0.0024999999441206455,0.0,0.0,0.0,0.0024999999441206455,0.0,0.0,0.0,0.0024999999441206455,0.0,0.0,0.0,0.019999999552965164,0.0,0.0,0.0,0.019999999552965164,0.0,0.0,0.0,0.019999999552965164,0.27653029561042786,-0.2190694510936737,9.643844604492188,0.03999999910593033,0.0,0.0,0.0,0.03999999910593033,0.0,0.0,0.0,0.03999999910593033
1779691677497488415,382867,1779691677484152816,imu_link,-0.008620482869446278,-0.01286155916750431,0.08370513468980789,0.9963659644126892,0.0024999999441206455,0.0,0.0,0.0,0.0024999999441206455,0.0,0.0,0.0,0.0024999999441206455,0.0,0.0,0.0,0.019999999552965164,0.0,0.0,0.0,0.019999999552965164,0.0,0.0,0.0,0.019999999552965164,0.2902969419956207,-0.24480712413787842,9.583390235900879,0.03999999910593033,0.0,0.0,0.0,0.03999999910593033,0.0,0.0,0.0,0.03999999910593033
1779691677505487761,382868,1779691677489152816,imu_link,-0.008857867680490017,-0.013301834464073181,0.08370374143123627,0.9963582754135132,0.0024999999441206455,0.0,0.0,0.0,0.0024999999441206455,0.0,0.0,0.0,0.0024999999441206455,0.0,0.0,0.0,0.019999999552965164,0.0,0.0,0.0,0.019999999552965164,0.0,0.0,0.0,0.019999999552965164,0.3262099623680115,-0.2472013235092163,9.663596153259277,0.03999999910593033,0.0,0.0,0.0,0.03999999910593033,0.0,0.0,0.0,0.03999999910593033
1779691677511851936,382869,1779691677494152816,imu_link,-0.008857867680490017,-0.013301834464073181,0.08370374143123627,0.9963582754135132,0.0024999999441206455,0.0,0.0,0.0,0.0024999999441206455,0.0,0.0,0.0,0.0024999999441206455,0.0,0.0,0.0,0.019999999552965164,0.0,0.0,0.0,0.019999999552965164,0.0,0.0,0.0,0.019999999552965164,0.3262099623680115,-0.2472013235092163,9.663596153259277,0.03999999910593033,0.0,0.0,0.0,0.03999999910593033,0.0,0.0,0.0,0.03999999910593033
1779691677517268269,382870,1779691677499152816,imu_link,-0.009235721081495285,-0.01394436601549387,0.08370205760002136,0.996346116065979,0.0024999999441206455,0.0,0.0,0.0,0.0024999999441206455,0.0,0.0,0.0,0.0024999999441206455,0.0,0.0,0.0,0.019999999552965164,0.0,0.0,0.0,0.019999999552965164,0.0,0.0,0.0,0.019999999552965164,0.3190273642539978,-0.24660277366638184,9.622296333312988,0.03999999910593033,0.0,0.0,0.0,0.03999999910593033,0.0,0.0,0.0,0.03999999910593033
1779691677523486626,382871,1779691677504152816,imu_link,-0.009627369232475758,-0.014574531465768814,0.08370063453912735,0.9963335394859314,0.0024999999441206455,0.0,0.0,0.0,0.0024999999441206455,0.0,0.0,0.0,0.0024999999441206455,0.0,0.0,0.0,0.019999999552965164,0.0,0.0,0.0,0.019999999552965164,0.0,0.0,0.0,0.019999999552965164,0.30047231912612915,-0.23523031175136566,9.589376449584961,0.03999999910593033,0.0,0.0,0.0,0.03999999910593033,0.0,0.0,0.0,0.03999999910593033
1779691677529294691,382872,1779691677509152816,imu_link,-0.009627369232475758,-0.014574531465768814,0.08370063453912735,0.9963335394859314,0.0024999999441206455,0.0,0.0,0.0,0.0024999999441206455,0.0,0.0,0.0,0.0024999999441206455,0.0,0.0,0.0,0.019999999552965164,0.0,0.0,0.0,0.019999999552965164,0.0,0.0,0.0,0.019999999552965164,0.30047231912612915,-0.23523031175136566,9.589376449584961,0.03999999910593033,0.0,0.0,0.0,0.03999999910593033,0.0,0.0,0.0,0.03999999910593033
1779691677554953114,382873,1779691677518152816,imu_link,-0.010336443781852722,-0.015802714973688126,0.08369703590869904,0.9963079690933228,0.0024999999441206455,0.0,0.0,0.0,0.0024999999441206455,0.0,0.0,0.0,0.0024999999441206455,0.0,0.0,0.0,0.019999999552965164,0.0,0.0,0.0,0.019999999552965164,0.0,0.0,0.0,0.019999999552965164,0.284311443567276,-0.22206220030784607,9.5809965133667,0.03999999910593033,0.0,0.0,0.0,0.03999999910593033,0.0,0.0,0.0,0.03999999910593033
1779691677579245290,382874,1779691677569152816,imu_link,-0.014040444046258926,-0.018672959879040718,0.08371788263320923,0.9962112903594971,0.0024999999441206455,0.0,0.0,0.0,0.0024999999441206455,0.0,0.0,0.0,0.0024999999441206455,0.0,0.0,0.0,0.019999999552965164,0.0,0.0,0.0,0.019999999552965164,0.0,0.0,0.0,0.019999999552965164,0.30226796865463257,-0.24839842319488525,9.605537414550781,0.03999999910593033,0.0,0.0,0.0,0.03999999910593033,0.0,0.0,0.0,0.03999999910593033
1779691677586146879,382875,1779691677572152816,imu_link,-0.013474931940436363,-0.01828153058886528,0.0837140828371048,0.9962265491485596,0.0024999999441206455,0.0,0.0,0.0,0.0024999999441206455,0.0,0.0,0.0,0.0024999999441206455,0.0,0.0,0.0,0.019999999552965164,0.0,0.0,0.0,0.019999999552965164,0.0,0.0,0.0,0.019999999552965164,0.3016694188117981,-0.24001871049404144,9.633668899536133,0.03999999910593033,0.0,0.0,0.0,0.03999999910593033,0.0,0.0,0.0,0.03999999910593033
1779691677592361044,382876,1779691677577152816,imu_link,-0.013474931940436363,-0.01828153058886528,0.0837140828371048,0.9962265491485596,0.0024999999441206455,0.0,0.0,0.0,0.0024999999441206455,0.0,0.0,0.0,0.0024999999441206455,0.0,0.0,0.0,0.019999999552965164,0.0,0.0,0.0,0.019999999552965164,0.0,0.0,0.0,0.019999999552965164,0.3016694188117981,-0.24001871049404144,9.633668899536133,0.03999999910593033,0.0,0.0,0.0,0.03999999910593033,0.0,0.0,0.0,0.03999999910593033
1779691677598083344,382877,1779691677582152816,imu_link,-0.012878576293587685,-0.017833959311246872,0.08371057361364365,0.9962430000305176,0.0024999999441206455,0.0,0.0,0.0,0.0024999999441206455,0.0,0.0,0.0,0.0024999999441206455,0.0,0.0,0.0,0.019999999552965164,0.0,0.0,0.0,0.019999999552965164,0.0,0.0,0.0,0.019999999552965164,0.30526071786880493,-0.2495955228805542,9.640851974487305,0.03999999910593033,0.0,0.0,0.0,0.03999999910593033,0.0,0.0,0.0,0.03999999910593033
1779691677603761077,382878,1779691677587152816,imu_link,-0.012367120943963528,-0.017297571524977684,0.08370968699455261,0.9962589144706726,0.0024999999441206455,0.0,0.0,0.0,0.0024999999441206455,0.0,0.0,0.0,0.0024999999441206455,0.0,0.0,0.0,0.019999999552965164,0.0,0.0,0.0,0.019999999552965164,0.0,0.0,0.0,0.019999999552965164,0.2777273952960968,-0.22685061395168304,9.591172218322754,0.03999999910593033,0.0,0.0,0.0,0.03999999910593033,0.0,0.0,0.0,0.03999999910593033
1779691677609717747,382879,1779691677594152816,imu_link,-0.011643391102552414,-0.017147164791822433,0.08370000123977661,0.996271014213562,0.0024999999441206455,0.0,0.0,0.0,0.0024999999441206455,0.0,0.0,0.0,0.0024999999441206455,0.0,0.0,0.0,0.019999999552965164,0.0,0.0,0.0,0.019999999552965164,0.0,0.0,0.0,0.019999999552965164,0.30945056676864624,-0.24420857429504395,9.622895240783691,0.03999999910593033,0.0,0.0,0.0,0.03999999910593033,0.0,0.0,0.0,0.03999999910593033
1779691677635758151,382880,1779691677603152816,imu_link,-0.011643391102552414,-0.017147164791822433,0.08370000123977661,0.996271014213562,0.0024999999441206455,0.0,0.0,0.0,0.0024999999441206455,0.0,0.0,0.0,0.0024999999441206455,0.0,0.0,0.0,0.019999999552965164,0.0,0.0,0.0,0.019999999552965164,0.0,0.0,0.0,0.019999999552965164,0.30945056676864624,-0.24420857429504395,9.622895240783691,0.03999999910593033,0.0,0.0,0.0,0.03999999910593033,0.0,0.0,0.0,0.03999999910593033
1779691677642113811,382881,1779691677606152816,imu_link,-0.010484440252184868,-0.016967954114079475,0.08368361741304398,0.9962884187698364,0.0024999999441206455,0.0,0.0,0.0,0.0024999999441206455,0.0,0.0,0.0,0.0024999999441206455,0.0,0.0,0.0,0.019999999552965164,0.0,0.0,0.0,0.019999999552965164,0.0,0.0,0.0,0.019999999552965164,0.30705636739730835,-0.21847090125083923,9.59177017211914,0.03999999910593033,0.0,0.0,0.0,0.03999999910593033,0.0,0.0,0.0,0.03999999910593033
1779691677665814970,382882,1779691677657152816,imu_link,-0.008928859606385231,-0.021409878507256508,0.08360502868890762,0.9962247014045715,0.0024999999441206455,0.0,0.0,0.0,0.0024999999441206455,0.0,0.0,0.0,0.0024999999441206455,0.0,0.0,0.0,0.019999999552965164,0.0,0.0,0.0,0.019999999552965164,0.0,0.0,0.0,0.019999999552965164,0.3208230137825012,-0.22445639967918396,9.59296703338623,0.03999999910593033,0.0,0.0,0.0,0.03999999910593033,0.0,0.0,0.0,0.03999999910593033
1779691677671940141,382883,1779691677660152816,imu_link,-0.009172240272164345,-0.020765570923686028,0.08361689746379852,0.9962350130081177,0.0024999999441206455,0.0,0.0,0.0,0.0024999999441206455,0.0,0.0,0.0,0.0024999999441206455,0.0,0.0,0.0,0.019999999552965164,0.0,0.0,0.0,0.019999999552965164,0.0,0.0,0.0,0.019999999552965164,0.2783259451389313,-0.24061726033687592,9.657610893249512,0.03999999910593033,0.0,0.0,0.0,0.03999999910593033,0.0,0.0,0.0,0.03999999910593033
1779691677678245660,382884,1779691677665152816,imu_link,-0.009172240272164345,-0.020765570923686028,0.08361689746379852,0.9962350130081177,0.0024999999441206455,0.0,0.0,0.0,0.0024999999441206455,0.0,0.0,0.0,0.0024999999441206455,0.0,0.0,0.0,0.019999999552965164,0.0,0.0,0.0,0.019999999552965164,0.0,0.0,0.0,0.019999999552965164,0.2783259451389313,-0.24061726033687592,9.657610893249512,0.03999999910593033,0.0,0.0,0.0,0.03999999910593033,0.0,0.0,0.0,0.03999999910593033
1779691677684207084,382885,1779691677670152816,imu_link,-0.009504813700914383,-0.020097119733691216,0.08363077789545059,0.9962444305419922,0.0024999999441206455,0.0,0.0,0.0,0.0024999999441206455,0.0,0.0,0.0,0.0024999999441206455,0.0,0.0,0.0,0.019999999552965164,0.0,0.0,0.0,0.019999999552965164,0.0,0.0,0.0,0.019999999552965164,0.304063618183136,-0.24001871049404144,9.594164848327637,0.03999999910593033,0.0,0.0,0.0,0.03999999910593033,0.0,0.0,0.0,0.03999999910593033
1779691677690072089,382886,1779691677675152816,imu_link,-0.009798990562558174,-0.019692979753017426,0.0836409404873848,0.9962488412857056,0.0024999999441206455,0.0,0.0,0.0,0.0024999999441206455,0.0,0.0,0.0,0.0024999999441206455,0.0,0.0,0.0,0.019999999552965164,0.0,0.0,0.0,0.019999999552965164,0.0,0.0,0.0,0.019999999552965164,0.30945056676864624,-0.2495955228805542,9.57560920715332,0.03999999910593033,0.0,0.0,0.0,0.03999999910593033,0.0,0.0,0.0,0.03999999910593033
1779691677695174251,382887,1779691677680152816,imu_link,-0.010308974422514439,-0.01915464736521244,0.08365665376186371,0.9962528944015503,0.0024999999441206455,0.0,0.0,0.0,0.0024999999441206455,0.0,0.0,0.0,0.0024999999441206455,0.0,0.0,0.0,0.019999999552965164,0.0,0.0,0.0,0.019999999552965164,0.0,0.0,0.0,0.019999999552965164,0.314238965511322,-0.2585737705230713,9.63187313079834,0.03999999910593033,0.0,0.0,0.0,0.03999999910593033,0.0,0.0,0.0,0.03999999910593033
1779691677720169679,382888,1779691677691152816,imu_link,-0.010832644067704678,-0.018632259219884872,0.08367238193750381,0.9962558746337891,0.0024999999441206455,0.0,0.0,0.0,0.0024999999441206455,0.0,0.0,0.0,0.0024999999441206455,0.0,0.0,0.0,0.019999999552965164,0.0,0.0,0.0,0.019999999552965164,0.0,0.0,0.0,0.019999999552965164,0.31184476613998413,-0.2621650695800781,9.628281593322754,0.03999999910593033,0.0,0.0,0.0,0.03999999910593033,0.0,0.0,0.0,0.03999999910593033
1779691677726894154,382889,1779691677694152816,imu_link,-0.010987676680088043,-0.017963474616408348,0.08368337154388428,0.9962655901908875,0.0024999999441206455,0.0,0.0,0.0,0.0024999999441206455,0.0,0.0,0.0,0.0024999999441206455,0.0,0.0,0.0,0.019999999552965164,0.0,0.0,0.0,0.019999999552965164,0.0,0.0,0.0,0.019999999552965164,0.3130418658256531,-0.24241292476654053,9.642048835754395,0.03999999910593033,0.0,0.0,0.0,0.03999999910593033,0.0,0.0,0.0,0.03999999910593033
1779691677750908707,382890,1779691677738152816,imu_link,-0.012519663199782372,-0.014276104047894478,0.08375465124845505,0.9963011741638184,0.0024999999441206455,0.0,0.0,0.0,0.0024999999441206455,0.0,0.0,0.0,0.0024999999441206455,0.0,0.0,0.0,0.019999999552965164,0.0,0.0,0.0,0.019999999552965164,0.0,0.0,0.0,0.019999999552965164,0.31184476613998413,-0.24600422382354736,9.660005569458008,0.03999999910593033,0.0,0.0,0.0,0.03999999910593033,0.0,0.0,0.0,0.03999999910593033
1779691677757050188,382891,1779691677741152816,imu_link,-0.012015054933726788,-0.014741080813109875,0.08374161273241043,0.9963016510009766,0.0024999999441206455,0.0,0.0,0.0,0.0024999999441206455,0.0,0.0,0.0,0.0024999999441206455,0.0,0.0,0.0,0.019999999552965164,0.0,0.0,0.0,0.019999999552965164,0.0,0.0,0.0,0.019999999552965164,0.3082534670829773,-0.21368250250816345,9.631275177001953,0.03999999910593033,0.0,0.0,0.0,0.03999999910593033,0.0,0.0,0.0,0.03999999910593033
1779691677762462387,382892,1779691677748152816,imu_link,-0.011399944312870502,-0.015155269764363766,0.08372770994901657,0.996303915977478,0.0024999999441206455,0.0,0.0,0.0,0.0024999999441206455,0.0,0.0,0.0,0.0024999999441206455,0.0,0.0,0.0,0.019999999552965164,0.0,0.0,0.0,0.019999999552965164,0.0,0.0,0.0,0.019999999552965164,0.284311443567276,-0.23044191300868988,9.657011985778809,0.03999999910593033,0.0,0.0,0.0,0.03999999910593033,0.0,0.0,0.0,0.03999999910593033
1779691677767911193,382893,1779691677753152816,imu_link,-0.011399944312870502,-0.015155269764363766,0.08372770994901657,0.996303915977478,0.0024999999441206455,0.0,0.0,0.0,0.0024999999441206455,0.0,0.0,0.0,0.0024999999441206455,0.0,0.0,0.0,0.019999999552965164,0.0,0.0,0.0,0.019999999552965164,0.0,0.0,0.0,0.019999999552965164,0.284311443567276,-0.23044191300868988,9.657011985778809,0.03999999910593033,0.0,0.0,0.0,0.03999999910593033,0.0,0.0,0.0,0.03999999910593033
1779691677774093752,382894,1779691677758152816,imu_link,-0.011387910693883896,-0.015900980681180954,0.08371809124946594,0.9962931275367737,0.0024999999441206455,0.0,0.0,0.0,0.0024999999441206455,0.0,0.0,0.0,0.0024999999441206455,0.0,0.0,0.0,0.019999999552965164,0.0,0.0,0.0,0.019999999552965164,0.0,0.0,0.0,0.019999999552965164,0.31783026456832886,-0.24660277366638184,9.636661529541016,0.03999999910593033,0.0,0.0,0.0,0.03999999910593033,0.0,0.0,0.0,0.03999999910593033
1779691677779981973,382895,1779691677763152816,imu_link,-0.010862455703318119,-0.016420384868979454,0.0837036594748497,0.9962917566299438,0.0024999999441206455,0.0,0.0,0.0,0.0024999999441206455,0.0,0.0,0.0,0.0024999999441206455,0.0,0.0,0.0,0.019999999552965164,0.0,0.0,0.0,0.019999999552965164,0.0,0.0,0.0,0.019999999552965164,0.3082534670829773,-0.228047713637352,9.667187690734863,0.03999999910593033,0.0,0.0,0.0,0.03999999910593033,0.0,0.0,0.0,0.03999999910593033
1779691677805477093,382896,1779691677772152816,imu_link,-0.010862455703318119,-0.016420384868979454,0.0837036594748497,0.9962917566299438,0.0024999999441206455,0.0,0.0,0.0,0.0024999999441206455,0.0,0.0,0.0,0.0024999999441206455,0.0,0.0,0.0,0.019999999552965164,0.0,0.0,0.0,0.019999999552965164,0.0,0.0,0.0,0.019999999552965164,0.3082534670829773,-0.228047713637352,9.667187690734863,0.03999999910593033,0.0,0.0,0.0,0.03999999910593033,0.0,0.0,0.0,0.03999999910593033
1779691677812010369,382897,1779691677775152816,imu_link,-0.010144778527319431,-0.015496941283345222,0.08370378613471985,0.9963141679763794,0.0024999999441206455,0.0,0.0,0.0,0.0024999999441206455,0.0,0.0,0.0,0.0024999999441206455,0.0,0.0,0.0,0.019999999552965164,0.0,0.0,0.0,0.019999999552965164,0.0,0.0,0.0,0.019999999552965164,0.28550854325294495,-0.2238578498363495,9.606734275817871,0.03999999910593033,0.0,0.0,0.0,0.03999999910593033,0.0,0.0,0.0,0.03999999910593033
1779691677836775484,382898,1779691677822152816,imu_link,-0.013256642036139965,-0.018480785191059113,0.08371438831090927,0.996225893497467,0.0024999999441206455,0.0,0.0,0.0,0.0024999999441206455,0.0,0.0,0.0,0.0024999999441206455,0.0,0.0,0.0,0.019999999552965164,0.0,0.0,0.0,0.019999999552965164,0.0,0.0,0.0,0.019999999552965164,0.30466216802597046,-0.24899697303771973,9.61212158203125,0.03999999910593033,0.0,0.0,0.0,0.03999999910593033,0.0,0.0,0.0,0.03999999910593033
1779691677843496754,382899,1779691677825152816,imu_link,-0.01287121046334505,-0.017912769690155983,0.08371607959270477,0.9962412118911743,0.0024999999441206455,0.0,0.0,0.0,0.0024999999441206455,0.0,0.0,0.0,0.0024999999441206455,0.0,0.0,0.0,0.019999999552965164,0.0,0.0,0.0,0.019999999552965164,0.0,0.0,0.0,0.019999999552965164,0.30226796865463257,-0.25917232036590576,9.652822494506836,0.03999999910593033,0.0,0.0,0.0,0.03999999910593033,0.0,0.0,0.0,0.03999999910593033
1779691677849090487,382900,1779691677832152816,imu_link,-0.01220213994383812,-0.01759338565170765,0.08370939642190933,0.9962557554244995,0.0024999999441206455,0.0,0.0,0.0,0.0024999999441206455,0.0,0.0,0.0,0.0024999999441206455,0.0,0.0,0.0,0.019999999552965164,0.0,0.0,0.0,0.019999999552965164,0.0,0.0,0.0,0.019999999552965164,0.3148375153541565,-0.25019407272338867,9.691129684448242,0.03999999910593033,0.0,0.0,0.0,0.03999999910593033,0.0,0.0,0.0,0.03999999910593033
1779691677855745485,382901,1779691677837152816,imu_link,-0.01220213994383812,-0.01759338565170765,0.08370939642190933,0.9962557554244995,0.0024999999441206455,0.0,0.0,0.0,0.0024999999441206455,0.0,0.0,0.0,0.0024999999441206455,0.0,0.0,0.0,0.019999999552965164,0.0,0.0,0.0,0.019999999552965164,0.0,0.0,0.0,0.019999999552965164,0.3148375153541565,-0.25019407272338867,9.691129684448242,0.03999999910593033,0.0,0.0,0.0,0.03999999910593033,0.0,0.0,0.0,0.03999999910593033
1779691677861225232,382902,1779691677842152816,imu_link,-0.011668821796774864,-0.017072485759854317,0.08370768278837204,0.9962714910507202,0.0024999999441206455,0.0,0.0,0.0,0.0024999999441206455,0.0,0.0,0.0,0.0024999999441206455,0.0,0.0,0.0,0.019999999552965164,0.0,0.0,0.0,0.019999999552965164,0.0,0.0,0.0,0.019999999552965164,0.29209259152412415,-0.23163901269435883,9.588178634643555,0.03999999910593033,0.0,0.0,0.0,0.03999999910593033,0.0,0.0,0.0,0.03999999910593033
1779691677866823574,382903,1779691677847152816,imu_link,-0.011192507110536098,-0.016508718952536583,0.08370737731456757,0.9962863922119141,0.0024999999441206455,0.0,0.0,0.0,0.0024999999441206455,0.0,0.0,0.0,0.0024999999441206455,0.0,0.0,0.0,0.019999999552965164,0.0,0.0,0.0,0.019999999552965164,0.0,0.0,0.0,0.019999999552965164,0.3010708689689636,-0.24361002445220947,9.640851974487305,0.03999999910593033,0.0,0.0,0.0,0.03999999910593033,0.0,0.0,0.0,0.03999999910593033
1779691677890854266,382904,1779691677856152816,imu_link,-0.011192507110536098,-0.016508718952536583,0.08370737731456757,0.9962863922119141,0.0024999999441206455,0.0,0.0,0.0,0.0024999999441206455,0.0,0.0,0.0,0.0024999999441206455,0.0,0.0,0.0,0.019999999552965164,0.0,0.0,0.0,0.019999999552965164,0.0,0.0,0.0,0.019999999552965164,0.3010708689689636,-0.24361002445220947,9.640851974487305,0.03999999910593033,0.0,0.0,0.0,0.03999999910593033,0.0,0.0,0.0,0.03999999910593033
1779691677914666010,382905,1779691677908152816,imu_link,-0.006671021692454815,-0.019954059273004532,0.08359266817569733,0.9962735772132874,0.0024999999441206455,0.0,0.0,0.0,0.0024999999441206455,0.0,0.0,0.0,0.0024999999441206455,0.0,0.0,0.0,0.019999999552965164,0.0,0.0,0.0,0.019999999552965164,0.0,0.0,0.0,0.019999999552965164,0.30885201692581177,-0.23104046285152435,9.636661529541016,0.03999999910593033,0.0,0.0,0.0,0.03999999910593033,0.0,0.0,0.0,0.03999999910593033
1779691677921180551,382906,1779691677911152816,imu_link,-0.007309418171644211,-0.019704483449459076,0.08360706269741058,0.99627286195755,0.0024999999441206455,0.0,0.0,0.0,0.0024999999441206455,0.0,0.0,0.0,0.0024999999441206455,0.0,0.0,0.0,0.019999999552965164,0.0,0.0,0.0,0.019999999552965164,0.0,0.0,0.0,0.019999999552965164,0.3238157629966736,-0.2561795711517334,9.596558570861816,0.03999999910593033,0.0,0.0,0.0,0.03999999910593033,0.0,0.0,0.0,0.03999999910593033
1779691677926726619,382907,1779691677918152816,imu_link,-0.007879238575696945,-0.019230207428336143,0.08362211287021637,0.9962764382362366,0.0024999999441206455,0.0,0.0,0.0,0.0024999999441206455,0.0,0.0,0.0,0.0024999999441206455,0.0,0.0,0.0,0.019999999552965164,0.0,0.0,0.0,0.019999999552965164,0.0,0.0,0.0,0.019999999552965164,0.30226796865463257,-0.23523031175136566,9.59057331085205,0.03999999910593033,0.0,0.0,0.0,0.03999999910593033,0.0,0.0,0.0,0.03999999910593033
1779691677932336030,382908,1779691677923152816,imu_link,-0.007879238575696945,-0.019230207428336143,0.08362211287021637,0.9962764382362366,0.0024999999441206455,0.0,0.0,0.0,0.0024999999441206455,0.0,0.0,0.0,0.0024999999441206455,0.0,0.0,0.0,0.019999999552965164,0.0,0.0,0.0,0.019999999552965164,0.0,0.0,0.0,0.019999999552965164,0.30226796865463257,-0.23523031175136566,9.59057331085205,0.03999999910593033,0.0,0.0,0.0,0.03999999910593033,0.0,0.0,0.0,0.03999999910593033
1779691677937916247,382909,1779691677928152816,imu_link,-0.008405780419707298,-0.018705064430832863,0.0836367979645729,0.99628084897995,0.0024999999441206455,0.0,0.0,0.0,0.0024999999441206455,0.0,0.0,0.0,0.0024999999441206455,0.0,0.0,0.0,0.019999999552965164,0.0,0.0,0.0,0.019999999552965164,0.0,0.0,0.0,0.019999999552965164,0.28969839215278625,-0.24061726033687592,9.662399291992188,0.03999999910593033,0.0,0.0,0.0,0.03999999910593033,0.0,0.0,0.0,0.03999999910593033
1779691677943984409,382910,1779691677933152816,imu_link,-0.00902333203703165,-0.018307728692889214,0.0836518257856369,0.9962818026542664,0.0024999999441206455,0.0,0.0,0.0,0.0024999999441206455,0.0,0.0,0.0,0.0024999999441206455,0.0,0.0,0.0,0.019999999552965164,0.0,0.0,0.0,0.019999999552965164,0.0,0.0,0.0,0.019999999552965164,0.31124621629714966,-0.23822306096553802,9.658209800720215,0.03999999910593033,0.0,0.0,0.0,0.03999999910593033,0.0,0.0,0.0,0.03999999910593033
1779691677968545533,382911,1779691677942152816,imu_link,-0.00902333203703165,-0.018307728692889214,0.0836518257856369,0.9962818026542664,0.0024999999441206455,0.0,0.0,0.0,0.0024999999441206455,0.0,0.0,0.0,0.0024999999441206455,0.0,0.0,0.0,0.019999999552965164,0.0,0.0,0.0,0.019999999552965164,0.0,0.0,0.0,0.019999999552965164,0.31124621629714966,-0.23822306096553802,9.658209800720215,0.03999999910593033,0.0,0.0,0.0,0.03999999910593033,0.0,0.0,0.0,0.03999999910593033
1779691677974799898,382912,1779691677945152816,imu_link,-0.0100746750831604,-0.017780689522624016,0.08367568999528885,0.9962791204452515,0.0024999999441206455,0.0,0.0,0.0,0.0024999999441206455,0.0,0.0,0.0,0.0024999999441206455,0.0,0.0,0.0,0.019999999552965164,0.0,0.0,0.0,0.019999999552965164,0.0,0.0,0.0,0.019999999552965164,0.3214215636253357,-0.228047713637352,9.625887870788574,0.03999999910593033,0.0,0.0,0.0,0.03999999910593033,0.0,0.0,0.0,0.03999999910593033
1779691677981349174,382913,1779691677952152816,imu_link,-0.010812551714479923,-0.0177345909178257,0.0836886614561081,0.9962711930274963,0.0024999999441206455,0.0,0.0,0.0,0.0024999999441206455,0.0,0.0,0.0,0.0024999999441206455,0.0,0.0,0.0,0.019999999552965164,0.0,0.0,0.0,0.019999999552965164,0.0,0.0,0.0,0.019999999552965164,0.32202011346817017,-0.2412158101797104,9.619303703308105,0.03999999910593033,0.0,0.0,0.0,0.03999999910593033,0.0,0.0,0.0,0.03999999910593033
1779691677987206266,382914,1779691677957152816,imu_link,-0.010812551714479923,-0.0177345909178257,0.0836886614561081,0.9962711930274963,0.0024999999441206455,0.0,0.0,0.0,0.0024999999441206455,0.0,0.0,0.0,0.0024999999441206455,0.0,0.0,0.0,0.019999999552965164,0.0,0.0,0.0,0.019999999552965164,0.0,0.0,0.0,0.019999999552965164,0.32202011346817017,-0.2412158101797104,9.619303703308105,0.03999999910593033,0.0,0.0,0.0,0.03999999910593033,0.0,0.0,0.0,0.03999999910593033
1779691678010583545,382915,1779691677999152816,imu_link,-0.008617151528596878,-0.021400831639766693,0.08360612392425537,0.9962275624275208,0.0024999999441206455,0.0,0.0,0.0,0.0024999999441206455,0.0,0.0,0.0,0.0024999999441206455,0.0,0.0,0.0,0.019999999552965164,0.0,0.0,0.0,0.019999999552965164,0.0,0.0,0.0,0.019999999552965164,0.33279404044151306,-0.23163901269435883,9.632472038269043,0.03999999910593033,0.0,0.0,0.0,0.03999999910593033,0.0,0.0,0.0,0.03999999910593033
1779691678017919288,382916,1779691678002152816,imu_link,-0.009005353786051273,-0.020836802199482918,0.08361994475126266,0.9962347745895386,0.0024999999441206455,0.0,0.0,0.0,0.0024999999441206455,0.0,0.0,0.0,0.0024999999441206455,0.0,0.0,0.0,0.019999999552965164,0.0,0.0,0.0,0.019999999552965164,0.0,0.0,0.0,0.019999999552965164,0.3058592677116394,-0.25019407272338867,9.586383819580078,0.03999999910593033,0.0,0.0,0.0,0.03999999910593033,0.0,0.0,0.0,0.03999999910593033
1779691678023540600,382917,1779691678009152816,imu_link,-0.009404442273080349,-0.020214488729834557,0.08363459259271622,0.9962428212165833,0.0024999999441206455,0.0,0.0,0.0,0.0024999999441206455,0.0,0.0,0.0,0.0024999999441206455,0.0,0.0,0.0,0.019999999552965164,0.0,0.0,0.0,0.019999999552965164,0.0,0.0,0.0,0.019999999552965164,0.3262099623680115,-0.23942016065120697,9.663596153259277,0.03999999910593033,0.0,0.0,0.0,0.03999999910593033,0.0,0.0,0.0,0.03999999910593033
1779691678029640679,382918,1779691678014152816,imu_link,-0.009404442273080349,-0.020214488729834557,0.08363459259271622,0.9962428212165833,0.0024999999441206455,0.0,0.0,0.0,0.0024999999441206455,0.0,0.0,0.0,0.0024999999441206455,0.0,0.0,0.0,0.019999999552965164,0.0,0.0,0.0,0.019999999552965164,0.0,0.0,0.0,0.019999999552965164,0.3262099623680115,-0.23942016065120697,9.663596153259277,0.03999999910593033,0.0,0.0,0.0,0.03999999910593033,0.0,0.0,0.0,0.03999999910593033
1779691678035513069,382919,1779691678019152816,imu_link,-0.009589729830622673,-0.019496923312544823,0.08364608883857727,0.9962542653083801,0.0024999999441206455,0.0,0.0,0.0,0.0024999999441206455,0.0,0.0,0.0,0.0024999999441206455,0.0,0.0,0.0,0.019999999552965164,0.0,0.0,0.0,0.019999999552965164,0.0,0.0,0.0,0.019999999552965164,0.30286651849746704,-0.22325929999351501,9.563638687133789,0.03999999910593033,0.0,0.0,0.0,0.03999999910593033,0.0,0.0,0.0,0.03999999910593033
1779691678041470908,382920,1779691678024152816,imu_link,-0.010181237012147903,-0.019050762057304382,0.08366208523511887,0.9962557554244995,0.0024999999441206455,0.0,0.0,0.0,0.0024999999441206455,0.0,0.0,0.0,0.0024999999441206455,0.0,0.0,0.0,0.019999999552965164,0.0,0.0,0.0,0.019999999552965164,0.0,0.0,0.0,0.019999999552965164,0.3238157629966736,-0.25438392162323,9.621698379516602,0.03999999910593033,0.0,0.0,0.0,0.03999999910593033,0.0,0.0,0.0,0.03999999910593033
1779691678067233423,382921,1779691678033152816,imu_link,-0.010181237012147903,-0.019050762057304382,0.08366208523511887,0.9962557554244995,0.0024999999441206455,0.0,0.0,0.0,0.0024999999441206455,0.0,0.0,0.0,0.0024999999441206455,0.0,0.0,0.0,0.019999999552965164,0.0,0.0,0.0,0.019999999552965164,0.0,0.0,0.0,0.019999999552965164,0.3238157629966736,-0.25438392162323,9.621698379516602,0.03999999910593033,0.0,0.0,0.0,0.03999999910593033,0.0,0.0,0.0,0.03999999910593033
1779691678073522935,382922,1779691678035152816,imu_link,-0.010393409058451653,-0.01790664717555046,0.08367931842803955,0.996273398399353,0.0024999999441206455,0.0,0.0,0.0,0.0024999999441206455,0.0,0.0,0.0,0.0024999999441206455,0.0,0.0,0.0,0.019999999552965164,0.0,0.0,0.0,0.019999999552965164,0.0,0.0,0.0,0.019999999552965164,0.30466216802597046,-0.22864626348018646,9.553462982177734,0.03999999910593033,0.0,0.0,0.0,0.03999999910593033,0.0,0.0,0.0,0.03999999910593033
1779691678099124993,382923,1779691678084152816,imu_link,-0.01274270098656416,-0.01415283977985382,0.08376289904117584,0.9962995052337646,0.0024999999441206455,0.0,0.0,0.0,0.0024999999441206455,0.0,0.0,0.0,0.0024999999441206455,0.0,0.0,0.0,0.019999999552965164,0.0,0.0,0.0,0.019999999552965164,0.0,0.0,0.0,0.019999999552965164,0.3166331648826599,-0.2364274114370346,9.691728591918945,0.03999999910593033,0.0,0.0,0.0,0.03999999910593033,0.0,0.0,0.0,0.03999999910593033
1779691678105492425,382924,1779691678087152816,imu_link,-0.012571115046739578,-0.014816113747656345,0.08375142514705658,0.9962929487228394,0.0024999999441206455,0.0,0.0,0.0,0.0024999999441206455,0.0,0.0,0.0,0.0024999999441206455,0.0,0.0,0.0,0.019999999552965164,0.0,0.0,0.0,0.019999999552965164,0.0,0.0,0.0,0.019999999552965164,0.31184476613998413,-0.2561795711517334,9.59835433959961,0.03999999910593033,0.0,0.0,0.0,0.03999999910593033,0.0,0.0,0.0,0.03999999910593033
1779691678111253935,382925,1779691678094152816,imu_link,-0.012349587865173817,-0.01552488561719656,0.08373860269784927,0.9962859749794006,0.0024999999441206455,0.0,0.0,0.0,0.0024999999441206455,0.0,0.0,0.0,0.0024999999441206455,0.0,0.0,0.0,0.019999999552965164,0.0,0.0,0.0,0.019999999552965164,0.0,0.0,0.0,0.019999999552965164,0.31543606519699097,-0.25438392162323,9.643245697021484,0.03999999910593033,0.0,0.0,0.0,0.03999999910593033,0.0,0.0,0.0,0.03999999910593033
1779691678116736575,382926,1779691678099152816,imu_link,-0.012349587865173817,-0.01552488561719656,0.08373860269784927,0.9962859749794006,0.0024999999441206455,0.0,0.0,0.0,0.0024999999441206455,0.0,0.0,0.0,0.0024999999441206455,0.0,0.0,0.0,0.019999999552965164,0.0,0.0,0.0,0.019999999552965164,0.0,0.0,0.0,0.019999999552965164,0.31543606519699097,-0.25438392162323,9.643245697021484,0.03999999910593033,0.0,0.0,0.0,0.03999999910593033,0.0,0.0,0.0,0.03999999910593033
1779691678122587625,382927,1779691678104152816,imu_link,-0.012152946554124355,-0.016238627955317497,0.08372602611780167,0.9962780475616455,0.0024999999441206455,0.0,0.0,0.0,0.0024999999441206455,0.0,0.0,0.0,0.0024999999441206455,0.0,0.0,0.0,0.019999999552965164,0.0,0.0,0.0,0.019999999552965164,0.0,0.0,0.0,0.019999999552965164,0.33937808871269226,-0.24899697303771973,9.575011253356934,0.03999999910593033,0.0,0.0,0.0,0.03999999910593033,0.0,0.0,0.0,0.03999999910593033
1779691678128038638,382928,1779691678109152816,imu_link,-0.011549375019967556,-0.016664942726492882,0.08371111005544662,0.9962794780731201,0.0024999999441206455,0.0,0.0,0.0,0.0024999999441206455,0.0,0.0,0.0,0.0024999999441206455,0.0,0.0,0.0,0.019999999552965164,0.0,0.0,0.0,0.019999999552965164,0.0,0.0,0.0,0.019999999552965164,0.3166331648826599,-0.2298433631658554,9.618704795837402,0.03999999910593033,0.0,0.0,0.0,0.03999999910593033,0.0,0.0,0.0,0.03999999910593033
1779691678152348142,382929,1779691678118152816,imu_link,-0.011549375019967556,-0.016664942726492882,0.08371111005544662,0.9962794780731201,0.0024999999441206455,0.0,0.0,0.0,0.0024999999441206455,0.0,0.0,0.0,0.0024999999441206455,0.0,0.0,0.0,0.019999999552965164,0.0,0.0,0.0,0.019999999552965164,0.0,0.0,0.0,0.019999999552965164,0.3166331648826599,-0.2298433631658554,9.618704795837402,0.03999999910593033,0.0,0.0,0.0,0.03999999910593033,0.0,0.0,0.0,0.03999999910593033
1779691678159281893,382930,1779691678121152816,imu_link,-0.010490587912499905,-0.017171083018183708,0.08368794620037079,0.9962844848632812,0.0024999999441206455,0.0,0.0,0.0,0.0024999999441206455,0.0,0.0,0.0,0.0024999999441206455,0.0,0.0,0.0,0.019999999552965164,0.0,0.0,0.0,0.019999999552965164,0.0,0.0,0.0,0.019999999552965164,0.31184476613998413,-0.23104046285152435,9.632472038269043,0.03999999910593033,0.0,0.0,0.0,0.03999999910593033,0.0,0.0,0.0,0.03999999910593033
1779691678182210838,382931,1779691678176152816,imu_link,-0.010045809671282768,-0.022263355553150177,0.08361907303333282,0.9961941838264465,0.0024999999441206455,0.0,0.0,0.0,0.0024999999441206455,0.0,0.0,0.0,0.0024999999441206455,0.0,0.0,0.0,0.019999999552965164,0.0,0.0,0.0,0.019999999552965164,0.0,0.0,0.0,0.019999999552965164,0.3238157629966736,-0.22924481332302094,9.634865760803223,0.03999999910593033,0.0,0.0,0.0,0.03999999910593033,0.0,0.0,0.0,0.03999999910593033
1779691678188492480,382932,1779691678179152816,imu_link,-0.01021825522184372,-0.021602148190140724,0.08363058418035507,0.9962058663368225,0.0024999999441206455,0.0,0.0,0.0,0.0024999999441206455,0.0,0.0,0.0,0.0024999999441206455,0.0,0.0,0.0,0.019999999552965164,0.0,0.0,0.0,0.019999999552965164,0.0,0.0,0.0,0.019999999552965164,0.314238965511322,-0.2454056739807129,9.622296333312988,0.03999999910593033,0.0,0.0,0.0,0.03999999910593033,0.0,0.0,0.0,0.03999999910593033
1779691678194255963,382933,1779691678186152816,imu_link,-0.010513465851545334,-0.020927241072058678,0.08364476263523102,0.9962160587310791,0.0024999999441206455,0.0,0.0,0.0,0.0024999999441206455,0.0,0.0,0.0,0.0024999999441206455,0.0,0.0,0.0,0.019999999552965164,0.0,0.0,0.0,0.019999999552965164,0.0,0.0,0.0,0.019999999552965164,0.32202011346817017,-0.2585737705230713,9.667786598205566,0.03999999910593033,0.0,0.0,0.0,0.03999999910593033,0.0,0.0,0.0,0.03999999910593033
1779691678199724011,382934,1779691678191152816,imu_link,-0.010513465851545334,-0.020927241072058678,0.08364476263523102,0.9962160587310791,0.0024999999441206455,0.0,0.0,0.0,0.0024999999441206455,0.0,0.0,0.0,0.0024999999441206455,0.0,0.0,0.0,0.019999999552965164,0.0,0.0,0.0,0.019999999552965164,0.0,0.0,0.0,0.019999999552965164,0.32202011346817017,-0.2585737705230713,9.667786598205566,0.03999999910593033,0.0,0.0,0.0,0.03999999910593033,0.0,0.0,0.0,0.03999999910593033
1779691678205512077,382935,1779691678196152816,imu_link,-0.01083654910326004,-0.02026081271469593,0.0836593434214592,0.9962251782417297,0.0024999999441206455,0.0,0.0,0.0,0.0024999999441206455,0.0,0.0,0.0,0.0024999999441206455,0.0,0.0,0.0,0.019999999552965164,0.0,0.0,0.0,0.019999999552965164,0.0,0.0,0.0,0.019999999552965164,0.30466216802597046,-0.26815059781074524,9.668983459472656,0.03999999910593033,0.0,0.0,0.0,0.03999999910593033,0.0,0.0,0.0,0.03999999910593033
1779691678212215375,382936,1779691678201152816,imu_link,-0.010885639116168022,-0.019520869478583336,0.0836694985628128,0.9962384104728699,0.0024999999441206455,0.0,0.0,0.0,0.0024999999441206455,0.0,0.0,0.0,0.0024999999441206455,0.0,0.0,0.0,0.019999999552965164,0.0,0.0,0.0,0.019999999552965164,0.0,0.0,0.0,0.019999999552965164,0.28550854325294495,-0.23942016065120697,9.636063575744629,0.03999999910593033,0.0,0.0,0.0,0.03999999910593033,0.0,0.0,0.0,0.03999999910593033
1779691678238674002,382937,1779691678210152816,imu_link,-0.010885639116168022,-0.019520869478583336,0.0836694985628128,0.9962384104728699,0.0024999999441206455,0.0,0.0,0.0,0.0024999999441206455,0.0,0.0,0.0,0.0024999999441206455,0.0,0.0,0.0,0.019999999552965164,0.0,0.0,0.0,0.019999999552965164,0.0,0.0,0.0,0.019999999552965164,0.28550854325294495,-0.23942016065120697,9.636063575744629,0.03999999910593033,0.0,0.0,0.0,0.03999999910593033,0.0,0.0,0.0,0.03999999910593033
1779691678245549230,382938,1779691678212152816,imu_link,-0.010609482415020466,-0.01838732697069645,0.0836784765124321,0.9962623119354248,0.0024999999441206455,0.0,0.0,0.0,0.0024999999441206455,0.0,0.0,0.0,0.0024999999441206455,0.0,0.0,0.0,0.019999999552965164,0.0,0.0,0.0,0.019999999552965164,0.0,0.0,0.0,0.019999999552965164,0.3190273642539978,-0.228047713637352,9.655217170715332,0.03999999910593033,0.0,0.0,0.0,0.03999999910593033,0.0,0.0,0.0,0.03999999910593033
1779691678269312925,382939,1779691678260152816,imu_link,-0.011566674336791039,-0.0141680259257555,0.08374550193548203,0.9963150024414062,0.0024999999441206455,0.0,0.0,0.0,0.0024999999441206455,0.0,0.0,0.0,0.0024999999441206455,0.0,0.0,0.0,0.019999999552965164,0.0,0.0,0.0,0.019999999552965164,0.0,0.0,0.0,0.019999999552965164,0.3166331648826599,-0.2364274114370346,9.640253067016602,0.03999999910593033,0.0,0.0,0.0,0.03999999910593033,0.0,0.0,0.0,0.03999999910593033
1779691678274853850,382940,1779691678263152816,imu_link,-0.011520233005285263,-0.014849569648504257,0.08373621106147766,0.9963064193725586,0.0024999999441206455,0.0,0.0,0.0,0.0024999999441206455,0.0,0.0,0.0,0.0024999999441206455,0.0,0.0,0.0,0.019999999552965164,0.0,0.0,0.0,0.019999999552965164,0.0,0.0,0.0,0.019999999552965164,0.31364041566848755,-0.24480712413787842,9.584588050842285,0.03999999910593033,0.0,0.0,0.0,0.03999999910593033,0.0,0.0,0.0,0.03999999910593033
1779691678280730510,382941,1779691678270152816,imu_link,-0.01118148397654295,-0.015504403039813042,0.08372316509485245,0.9963014125823975,0.0024999999441206455,0.0,0.0,0.0,0.0024999999441206455,0.0,0.0,0.0,0.0024999999441206455,0.0,0.0,0.0,0.019999999552965164,0.0,0.0,0.0,0.019999999552965164,0.0,0.0,0.0,0.019999999552965164,0.3010708689689636,-0.23163901269435883,9.651026725769043,0.03999999910593033,0.0,0.0,0.0,0.03999999910593033,0.0,0.0,0.0,0.03999999910593033
1779691678286511542,382942,1779691678275152816,imu_link,-0.01118148397654295,-0.015504403039813042,0.08372316509485245,0.9963014125823975,0.0024999999441206455,0.0,0.0,0.0,0.0024999999441206455,0.0,0.0,0.0,0.0024999999441206455,0.0,0.0,0.0,0.019999999552965164,0.0,0.0,0.0,0.019999999552965164,0.0,0.0,0.0,0.019999999552965164,0.3010708689689636,-0.23163901269435883,9.651026725769043,0.03999999910593033,0.0,0.0,0.0,0.03999999910593033,0.0,0.0,0.0,0.03999999910593033
1779691678292052451,382943,1779691678280152816,imu_link,-0.011197940446436405,-0.01624489575624466,0.08371416479349136,0.9962900876998901,0.0024999999441206455,0.0,0.0,0.0,0.0024999999441206455,0.0,0.0,0.0,0.0024999999441206455,0.0,0.0,0.0,0.019999999552965164,0.0,0.0,0.0,0.019999999552965164,0.0,0.0,0.0,0.019999999552965164,0.314238965511322,-0.24361002445220947,9.638457298278809,0.03999999910593033,0.0,0.0,0.0,0.03999999910593033,0.0,0.0,0.0,0.03999999910593033
1779691678300147284,382944,1779691678285152816,imu_link,-0.011314453557133675,-0.01697663776576519,0.08370675891637802,0.9962772727012634,0.0024999999441206455,0.0,0.0,0.0,0.0024999999441206455,0.0,0.0,0.0,0.0024999999441206455,0.0,0.0,0.0,0.019999999552965164,0.0,0.0,0.0,0.019999999552965164,0.0,0.0,0.0,0.019999999552965164,0.32261866331100464,-0.24839842319488525,9.63306999206543,0.03999999910593033,0.0,0.0,0.0,0.03999999910593033,0.0,0.0,0.0,0.03999999910593033
1779691678324758627,382945,1779691678294152816,imu_link,-0.011314453557133675,-0.01697663776576519,0.08370675891637802,0.9962772727012634,0.0024999999441206455,0.0,0.0,0.0,0.0024999999441206455,0.0,0.0,0.0,0.0024999999441206455,0.0,0.0,0.0,0.019999999552965164,0.0,0.0,0.0,0.019999999552965164,0.0,0.0,0.0,0.019999999552965164,0.32261866331100464,-0.24839842319488525,9.63306999206543,0.03999999910593033,0.0,0.0,0.0,0.03999999910593033,0.0,0.0,0.0,0.03999999910593033
1779691678331619248,382946,1779691678296152816,imu_link,-0.011781160719692707,-0.0180463045835495,0.08370057493448257,0.9962536096572876,0.0024999999441206455,0.0,0.0,0.0,0.0024999999441206455,0.0,0.0,0.0,0.0024999999441206455,0.0,0.0,0.0,0.019999999552965164,0.0,0.0,0.0,0.019999999552965164,0.0,0.0,0.0,0.019999999552965164,0.31543606519699097,-0.24839842319488525,9.578003883361816,0.03999999910593033,0.0,0.0,0.0,0.03999999910593033,0.0,0.0,0.0,0.03999999910593033
1779691678355149068,382947,1779691678346152816,imu_link,-0.009392627514898777,-0.014204226434230804,0.08371002227067947,0.9963403344154358,0.0024999999441206455,0.0,0.0,0.0,0.0024999999441206455,0.0,0.0,0.0,0.0024999999441206455,0.0,0.0,0.0,0.019999999552965164,0.0,0.0,0.0,0.019999999552965164,0.0,0.0,0.0,0.019999999552965164,0.30047231912612915,-0.23523031175136566,9.657011985778809,0.03999999910593033,0.0,0.0,0.0,0.03999999910593033,0.0,0.0,0.0,0.03999999910593033
1779691678361313524,382948,1779691678349152816,imu_link,-0.009567394852638245,-0.014864515513181686,0.083705373108387,0.9963294267654419,0.0024999999441206455,0.0,0.0,0.0,0.0024999999441206455,0.0,0.0,0.0,0.0024999999441206455,0.0,0.0,0.0,0.019999999552965164,0.0,0.0,0.0,0.019999999552965164,0.0,0.0,0.0,0.019999999552965164,0.3190273642539978,-0.22505494952201843,9.618704795837402,0.03999999910593033,0.0,0.0,0.0,0.03999999910593033,0.0,0.0,0.0,0.03999999910593033
1779691678367643195,382949,1779691678356152816,imu_link,-0.009792296215891838,-0.015566814690828323,0.08370092511177063,0.9963168501853943,0.0024999999441206455,0.0,0.0,0.0,0.0024999999441206455,0.0,0.0,0.0,0.0024999999441206455,0.0,0.0,0.0,0.019999999552965164,0.0,0.0,0.0,0.019999999552965164,0.0,0.0,0.0,0.019999999552965164,0.3100491166114807,-0.22445639967918396,9.642048835754395,0.03999999910593033,0.0,0.0,0.0,0.03999999910593033,0.0,0.0,0.0,0.03999999910593033
1779691678372941156,382950,1779691678361152816,imu_link,-0.009792296215891838,-0.015566814690828323,0.08370092511177063,0.9963168501853943,0.0024999999441206455,0.0,0.0,0.0,0.0024999999441206455,0.0,0.0,0.0,0.0024999999441206455,0.0,0.0,0.0,0.019999999552965164,0.0,0.0,0.0,0.019999999552965164,0.0,0.0,0.0,0.019999999552965164,0.3100491166114807,-0.22445639967918396,9.642048835754395,0.03999999910593033,0.0,0.0,0.0,0.03999999910593033,0.0,0.0,0.0,0.03999999910593033
1779691678379089507,382951,1779691678366152816,imu_link,-0.010490951128304005,-0.01581265591084957,0.08370846509933472,0.9963053464889526,0.0024999999441206455,0.0,0.0,0.0,0.0024999999441206455,0.0,0.0,0.0,0.0024999999441206455,0.0,0.0,0.0,0.019999999552965164,0.0,0.0,0.0,0.019999999552965164,0.0,0.0,0.0,0.019999999552965164,0.29209259152412415,-0.24839842319488525,9.621099472045898,0.03999999910593033,0.0,0.0,0.0,0.03999999910593033,0.0,0.0,0.0,0.03999999910593033
1779691678384866730,382952,1779691678371152816,imu_link,-0.010585993528366089,-0.016547949984669685,0.08370118588209152,0.9962929487228394,0.0024999999441206455,0.0,0.0,0.0,0.0024999999441206455,0.0,0.0,0.0,0.0024999999441206455,0.0,0.0,0.0,0.019999999552965164,0.0,0.0,0.0,0.019999999552965164,0.0,0.0,0.0,0.019999999552965164,0.32680851221084595,-0.23582886159420013,9.642048835754395,0.03999999910593033,0.0,0.0,0.0,0.03999999910593033,0.0,0.0,0.0,0.03999999910593033
1779691678409583790,382953,1779691678380152816,imu_link,-0.010585993528366089,-0.016547949984669685,0.08370118588209152,0.9962929487228394,0.0024999999441206455,0.0,0.0,0.0,0.0024999999441206455,0.0,0.0,0.0,0.0024999999441206455,0.0,0.0,0.0,0.019999999552965164,0.0,0.0,0.0,0.019999999552965164,0.0,0.0,0.0,0.019999999552965164,0.32680851221084595,-0.23582886159420013,9.642048835754395,0.03999999910593033,0.0,0.0,0.0,0.03999999910593033,0.0,0.0,0.0,0.03999999910593033
1779691678436180015,382954,1779691678430152816,imu_link,-0.01087891310453415,-0.02202729508280754,0.08363909274339676,0.9961889386177063,0.0024999999441206455,0.0,0.0,0.0,0.0024999999441206455,0.0,0.0,0.0,0.0024999999441206455,0.0,0.0,0.0,0.019999999552965164,0.0,0.0,0.0,0.019999999552965164,0.0,0.0,0.0,0.019999999552965164,0.3345896899700165,-0.2346317619085312,9.627683639526367,0.03999999910593033,0.0,0.0,0.0,0.03999999910593033,0.0,0.0,0.0,0.03999999910593033
1779691678442121643,382955,1779691678432152816,imu_link,-0.010978028178215027,-0.021358633413910866,0.083649642765522,0.9962015151977539,0.0024999999441206455,0.0,0.0,0.0,0.0024999999441206455,0.0,0.0,0.0,0.0024999999441206455,0.0,0.0,0.0,0.019999999552965164,0.0,0.0,0.0,0.019999999552965164,0.0,0.0,0.0,0.019999999552965164,0.2998737692832947,-0.25079262256622314,9.616909980773926,0.03999999910593033,0.0,0.0,0.0,0.03999999910593033,0.0,0.0,0.0,0.03999999910593033
1779691678447767958,382956,1779691678437152816,imu_link,-0.010978028178215027,-0.021358633413910866,0.083649642765522,0.9962015151977539,0.0024999999441206455,0.0,0.0,0.0,0.0024999999441206455,0.0,0.0,0.0,0.0024999999441206455,0.0,0.0,0.0,0.019999999552965164,0.0,0.0,0.0,0.019999999552965164,0.0,0.0,0.0,0.019999999552965164,0.2998737692832947,-0.25079262256622314,9.616909980773926,0.03999999910593033,0.0,0.0,0.0,0.03999999910593033,0.0,0.0,0.0,0.03999999910593033
1779691678453406757,382957,1779691678442152816,imu_link,-0.01096317544579506,-0.020617559552192688,0.08365874737501144,0.9962165355682373,0.0024999999441206455,0.0,0.0,0.0,0.0024999999441206455,0.0,0.0,0.0,0.0024999999441206455,0.0,0.0,0.0,0.019999999552965164,0.0,0.0,0.0,0.019999999552965164,0.0,0.0,0.0,0.019999999552965164,0.3315969407558441,-0.2388216108083725,9.624092102050781,0.03999999910593033,0.0,0.0,0.0,0.03999999910593033,0.0,0.0,0.0,0.03999999910593033
1779691678459452038,382958,1779691678447152816,imu_link,-0.010892316699028015,-0.019879518076777458,0.08366666734218597,0.9962316155433655,0.0024999999441206455,0.0,0.0,0.0,0.0024999999441206455,0.0,0.0,0.0,0.0024999999441206455,0.0,0.0,0.0,0.019999999552965164,0.0,0.0,0.0,0.019999999552965164,0.0,0.0,0.0,0.019999999552965164,0.3190273642539978,-0.23403321206569672,9.683947563171387,0.03999999910593033,0.0,0.0,0.0,0.03999999910593033,0.0,0.0,0.0,0.03999999910593033
1779691678466062398,382959,1779691678452152816,imu_link,-0.010892316699028015,-0.019879518076777458,0.08366666734218597,0.9962316155433655,0.0024999999441206455,0.0,0.0,0.0,0.0024999999441206455,0.0,0.0,0.0,0.0024999999441206455,0.0,0.0,0.0,0.019999999552965164,0.0,0.0,0.0,0.019999999552965164,0.0,0.0,0.0,0.019999999552965164,0.3190273642539978,-0.23403321206569672,9.683947563171387,0.03999999910593033,0.0,0.0,0.0,0.03999999910593033,0.0,0.0,0.0,0.03999999910593033
1779691678470645486,382960,1779691678457152816,imu_link,-0.01082596369087696,-0.019137384369969368,0.08367467671632767,0.9962461590766907,0.0024999999441206455,0.0,0.0,0.0,0.0024999999441206455,0.0,0.0,0.0,0.0024999999441206455,0.0,0.0,0.0,0.019999999552965164,0.0,0.0,0.0,0.019999999552965164,0.0,0.0,0.0,0.019999999552965164,0.2974795699119568,-0.22924481332302094,9.611522674560547,0.03999999910593033,0.0,0.0,0.0,0.03999999910593033,0.0,0.0,0.0,0.03999999910593033
1779691678496385626,382961,1779691678466152816,imu_link,-0.0110948970541358,-0.018003372475504875,0.08369356393814087,0.9962628483772278,0.0024999999441206455,0.0,0.0,0.0,0.0024999999441206455,0.0,0.0,0.0,0.0024999999441206455,0.0,0.0,0.0,0.019999999552965164,0.0,0.0,0.0,0.019999999552965164,0.0,0.0,0.0,0.019999999552965164,0.3058592677116394,-0.24420857429504395,9.589974403381348,0.03999999910593033,0.0,0.0,0.0,0.03999999910593033,0.0,0.0,0.0,0.03999999910593033
1779691678502946358,382962,1779691678471152816,imu_link,-0.0110948970541358,-0.018003372475504875,0.08369356393814087,0.9962628483772278,0.0024999999441206455,0.0,0.0,0.0,0.0024999999441206455,0.0,0.0,0.0,0.0024999999441206455,0.0,0.0,0.0,0.019999999552965164,0.0,0.0,0.0,0.019999999552965164,0.0,0.0,0.0,0.019999999552965164,0.3058592677116394,-0.24420857429504395,9.589974403381348,0.03999999910593033,0.0,0.0,0.0,0.03999999910593033,0.0,0.0,0.0,0.03999999910593033
1779691678509420903,382963,1779691678476152816,imu_link,-0.01094853412359953,-0.01727607473731041,0.08370018750429153,0.9962766766548157,0.0024999999441206455,0.0,0.0,0.0,0.0024999999441206455,0.0,0.0,0.0,0.0024999999441206455,0.0,0.0,0.0,0.019999999552965164,0.0,0.0,0.0,0.019999999552965164,0.0,0.0,0.0,0.019999999552965164,0.3190273642539978,-0.24001871049404144,9.660005569458008,0.03999999910593033,0.0,0.0,0.0,0.03999999910593033,0.0,0.0,0.0,0.03999999910593033
1779691678515035739,382964,1779691678481152816,imu_link,-0.010208486579358578,-0.01733149215579033,0.08368741720914841,0.9962846636772156,0.0024999999441206455,0.0,0.0,0.0,0.0024999999441206455,0.0,0.0,0.0,0.0024999999441206455,0.0,0.0,0.0,0.019999999552965164,0.0,0.0,0.0,0.019999999552965164,0.0,0.0,0.0,0.019999999552965164,0.31783026456832886,-0.22266075015068054,9.66419506072998,0.03999999910593033,0.0,0.0,0.0,0.03999999910593033,0.0,0.0,0.0,0.03999999910593033
1779691678539221371,382965,1779691678532152816,imu_link,-0.014376452192664146,-0.015291127376258373,0.08377867937088013,0.9962590336799622,0.0024999999441206455,0.0,0.0,0.0,0.0024999999441206455,0.0,0.0,0.0,0.0024999999441206455,0.0,0.0,0.0,0.019999999552965164,0.0,0.0,0.0,0.019999999552965164,0.0,0.0,0.0,0.019999999552965164,0.3010708689689636,-0.25019407272338867,9.637858390808105,0.03999999910593033,0.0,0.0,0.0,0.03999999910593033,0.0,0.0,0.0,0.03999999910593033
1779691678548510995,382966,1779691678534152816,imu_link,-0.013792399317026138,-0.015636494383215904,0.08376506716012955,0.9962630271911621,0.0024999999441206455,0.0,0.0,0.0,0.0024999999441206455,0.0,0.0,0.0,0.0024999999441206455,0.0,0.0,0.0,0.019999999552965164,0.0,0.0,0.0,0.019999999552965164,0.0,0.0,0.0,0.019999999552965164,0.30526071786880493,-0.2495955228805542,9.598953247070312,0.03999999910593033,0.0,0.0,0.0,0.03999999910593033,0.0,0.0,0.0,0.03999999910593033
