%time,field.header.seq,field.header.stamp,field.header.frame_id,field.orientation.x,field.orientation.y,field.orientation.z,field.orientation.w,field.orientation_covariance0,field.orientation_covariance1,field.orientation_covariance2,field.orientation_covariance3,field.orientation_covariance4,field.orientation_covariance5,field.orientation_covariance6,field.orientation_covariance7,field.orientation_covariance8,field.angular_velocity.x,field.angular_velocity.y,field.angular_velocity.z,field.angular_velocity_covariance0,field.angular_velocity_covariance1,field.angular_velocity_covariance2,field.angular_velocity_covariance3,field.angular_velocity_covariance4,field.angular_velocity_covariance5,field.angular_velocity_covariance6,field.angular_velocity_covariance7,field.angular_velocity_covariance8,field.linear_acceleration.x,field.linear_acceleration.y,field.linear_acceleration.z,field.linear_acceleration_covariance0,field.linear_acceleration_covariance1,field.linear_acceleration_covariance2,field.linear_acceleration_covariance3,field.linear_acceleration_covariance4,field.linear_acceleration_covariance5,field.linear_acceleration_covariance6,field.linear_acceleration_covariance7,field.linear_acceleration_covariance8
1779682949978364413,883244,1779682949789909893,imu_link,0.007443913258612156,-0.006024019327014685,0.623690128326416,0.7816075086593628,0.0024999999441206455,0.0,0.0,0.0,0.0024999999441206455,0.0,0.0,0.0,0.0024999999441206455,0.0,0.0,0.0,0.019999999552965164,0.0,0.0,0.0,0.019999999552965164,0.0,0.0,0.0,0.019999999552965164,0.16879121959209442,-0.008978256024420261,9.657610893249512,0.03999999910593033,0.0,0.0,0.0,0.03999999910593033,0.0,0.0,0.0,0.03999999910593033
1779682949978372729,883245,1779682949798909893,imu_link,0.006275671999901533,-0.006039405707269907,0.6237006783485413,0.7816092371940613,0.0024999999441206455,0.0,0.0,0.0,0.0024999999441206455,0.0,0.0,0.0,0.0024999999441206455,0.0,0.0,0.0,0.019999999552965164,0.0,0.0,0.0,0.019999999552965164,0.0,0.0,0.0,0.019999999552965164,0.15322890877723694,0.004788403399288654,9.643844604492188,0.03999999910593033,0.0,0.0,0.0,0.03999999910593033,0.0,0.0,0.0,0.03999999910593033
1779682949978390015,883246,1779682949803909893,imu_link,0.006275671999901533,-0.006039405707269907,0.6237006783485413,0.7816092371940613,0.0024999999441206455,0.0,0.0,0.0,0.0024999999441206455,0.0,0.0,0.0,0.0024999999441206455,0.0,0.0,0.0,0.019999999552965164,0.0,0.0,0.0,0.019999999552965164,0.0,0.0,0.0,0.019999999552965164,0.15322890877723694,0.004788403399288654,9.643844604492188,0.03999999910593033,0.0,0.0,0.0,0.03999999910593033,0.0,0.0,0.0,0.03999999910593033
1779682949978401155,883247,1779682949854909893,imu_link,0.001687326468527317,-0.008514687418937683,0.6237345933914185,0.7815824151039124,0.0024999999441206455,0.0,0.0,0.0,0.0024999999441206455,0.0,0.0,0.0,0.0024999999441206455,0.0,0.0,0.0,0.019999999552965164,0.0,0.0,0.0,0.019999999552965164,0.0,0.0,0.0,0.019999999552965164,0.16160860657691956,-0.004189853090792894,9.630077362060547,0.03999999910593033,0.0,0.0,0.0,0.03999999910593033,0.0,0.0,0.0,0.03999999910593033
1779682949978405036,883248,1779682949857909893,imu_link,0.0023469668813049793,-0.008333873003721237,0.6237301230430603,0.7815862894058228,0.0024999999441206455,0.0,0.0,0.0,0.0024999999441206455,0.0,0.0,0.0,0.0024999999441206455,0.0,0.0,0.0,0.019999999552965164,0.0,0.0,0.0,0.019999999552965164,0.0,0.0,0.0,0.019999999552965164,0.17836801707744598,-0.0065840547904372215,9.612719535827637,0.03999999910593033,0.0,0.0,0.0,0.03999999910593033,0.0,0.0,0.0,0.03999999910593033
1779682949978411738,883249,1779682949862909893,imu_link,0.0023469668813049793,-0.008333873003721237,0.6237301230430603,0.7815862894058228,0.0024999999441206455,0.0,0.0,0.0,0.0024999999441206455,0.0,0.0,0.0,0.0024999999441206455,0.0,0.0,0.0,0.019999999552965164,0.0,0.0,0.0,0.019999999552965164,0.0,0.0,0.0,0.019999999552965164,0.17836801707744598,-0.0065840547904372215,9.612719535827637,0.03999999910593033,0.0,0.0,0.0,0.03999999910593033,0.0,0.0,0.0,0.03999999910593033
1779682949978415273,883250,1779682949867909893,imu_link,0.003029670100659132,-0.0080399876460433,0.6237255334854126,0.7815908193588257,0.0024999999441206455,0.0,0.0,0.0,0.0024999999441206455,0.0,0.0,0.0,0.0024999999441206455,0.0,0.0,0.0,0.019999999552965164,0.0,0.0,0.0,0.019999999552965164,0.0,0.0,0.0,0.019999999552965164,0.17477671802043915,0.010175356641411781,9.663596153259277,0.03999999910593033,0.0,0.0,0.0,0.03999999910593033,0.0,0.0,0.0,0.03999999910593033
1779682949978421967,883251,1779682949872909893,imu_link,0.003709569340571761,-0.0077409083023667336,0.6237205862998962,0.7815948128700256,0.0024999999441206455,0.0,0.0,0.0,0.0024999999441206455,0.0,0.0,0.0,0.0024999999441206455,0.0,0.0,0.0,0.019999999552965164,0.0,0.0,0.0,0.019999999552965164,0.0,0.0,0.0,0.019999999552965164,0.17836801707744598,0.028131868690252304,9.627084732055664,0.03999999910593033,0.0,0.0,0.0,0.03999999910593033,0.0,0.0,0.0,0.03999999910593033
1779682949978429638,883252,1779682949877909893,imu_link,0.003709569340571761,-0.0077409083023667336,0.6237205862998962,0.7815948128700256,0.0024999999441206455,0.0,0.0,0.0,0.0024999999441206455,0.0,0.0,0.0,0.0024999999441206455,0.0,0.0,0.0,0.019999999552965164,0.0,0.0,0.0,0.019999999552965164,0.0,0.0,0.0,0.019999999552965164,0.17836801707744598,0.028131868690252304,9.627084732055664,0.03999999910593033,0.0,0.0,0.0,0.03999999910593033,0.0,0.0,0.0,0.03999999910593033
1779682949978433433,883253,1779682949882909893,imu_link,0.003925700671970844,-0.007030121982097626,0.6237199902534485,0.7816009521484375,0.0024999999441206455,0.0,0.0,0.0,0.0024999999441206455,0.0,0.0,0.0,0.0024999999441206455,0.0,0.0,0.0,0.019999999552965164,0.0,0.0,0.0,0.019999999552965164,0.0,0.0,0.0,0.019999999552965164,0.13287819921970367,0.004788403399288654,9.671976089477539,0.03999999910593033,0.0,0.0,0.0,0.03999999910593033,0.0,0.0,0.0,0.03999999910593033
1779682949978440419,883254,1779682949891909893,imu_link,0.005081762094050646,-0.006864029914140701,0.623710572719574,0.781603217124939,0.0024999999441206455,0.0,0.0,0.0,0.0024999999441206455,0.0,0.0,0.0,0.0024999999441206455,0.0,0.0,0.0,0.019999999552965164,0.0,0.0,0.0,0.019999999552965164,0.0,0.0,0.0,0.019999999552965164,0.1693897694349289,0.0035913025494664907,9.594762802124023,0.03999999910593033,0.0,0.0,0.0,0.03999999910593033,0.0,0.0,0.0,0.03999999910593033
1779682949978450145,883255,1779682949949909893,imu_link,-0.0003320729301776737,-0.007101174909621477,0.6237475872039795,0.7815881371498108,0.0024999999441206455,0.0,0.0,0.0,0.0024999999441206455,0.0,0.0,0.0,0.0024999999441206455,0.0,0.0,0.0,0.019999999552965164,0.0,0.0,0.0,0.019999999552965164,0.0,0.0,0.0,0.019999999552965164,0.15442600846290588,-0.02214636467397213,9.734225273132324,0.03999999910593033,0.0,0.0,0.0,0.03999999910593033,0.0,0.0,0.0,0.03999999910593033
1779682949984478074,883256,1779682949952909893,imu_link,0.00034981415956281126,-0.007047704420983791,0.623744010925293,0.7815914750099182,0.0024999999441206455,0.0,0.0,0.0,0.0024999999441206455,0.0,0.0,0.0,0.0024999999441206455,0.0,0.0,0.0,0.019999999552965164,0.0,0.0,0.0,0.019999999552965164,0.0,0.0,0.0,0.019999999552965164,0.16819266974925995,0.005386953707784414,9.657011985778809,0.03999999910593033,0.0,0.0,0.0,0.03999999910593033,0.0,0.0,0.0,0.03999999910593033
1779682949990948326,883257,1779682949957909893,imu_link,0.00034981415956281126,-0.007047704420983791,0.623744010925293,0.7815914750099182,0.0024999999441206455,0.0,0.0,0.0,0.0024999999441206455,0.0,0.0,0.0,0.0024999999441206455,0.0,0.0,0.0,0.019999999552965164,0.0,0.0,0.0,0.019999999552965164,0.0,0.0,0.0,0.019999999552965164,0.16819266974925995,0.005386953707784414,9.657011985778809,0.03999999910593033,0.0,0.0,0.0,0.03999999910593033,0.0,0.0,0.0,0.03999999910593033
1779682949995748210,883258,1779682949962909893,imu_link,0.0010628335876390338,-0.00683532003313303,0.623740553855896,0.7815953493118286,0.0024999999441206455,0.0,0.0,0.0,0.0024999999441206455,0.0,0.0,0.0,0.0024999999441206455,0.0,0.0,0.0,0.019999999552965164,0.0,0.0,0.0,0.019999999552965164,0.0,0.0,0.0,0.019999999552965164,0.15263035893440247,0.02454056777060032,9.651625633239746,0.03999999910593033,0.0,0.0,0.0,0.03999999910593033,0.0,0.0,0.0,0.03999999910593033
1779682950002054027,883259,1779682949967909893,imu_link,0.0018015423556789756,-0.006895733065903187,0.6237357258796692,0.7815973162651062,0.0024999999441206455,0.0,0.0,0.0,0.0024999999441206455,0.0,0.0,0.0,0.0024999999441206455,0.0,0.0,0.0,0.019999999552965164,0.0,0.0,0.0,0.019999999552965164,0.0,0.0,0.0,0.019999999552965164,0.16879121959209442,-0.010175356641411781,9.654618263244629,0.03999999910593033,0.0,0.0,0.0,0.03999999910593033,0.0,0.0,0.0,0.03999999910593033
1779682950007670200,883260,1779682949972909893,imu_link,0.0018015423556789756,-0.006895733065903187,0.6237357258796692,0.7815973162651062,0.0024999999441206455,0.0,0.0,0.0,0.0024999999441206455,0.0,0.0,0.0,0.0024999999441206455,0.0,0.0,0.0,0.019999999552965164,0.0,0.0,0.0,0.019999999552965164,0.0,0.0,0.0,0.019999999552965164,0.16879121959209442,-0.010175356641411781,9.654618263244629,0.03999999910593033,0.0,0.0,0.0,0.03999999910593033,0.0,0.0,0.0,0.03999999910593033
1779682950013567823,883261,1779682949977909893,imu_link,0.0025447059888392687,-0.006891871336847544,0.6237306594848633,0.7815992832183838,0.0024999999441206455,0.0,0.0,0.0,0.0024999999441206455,0.0,0.0,0.0,0.0024999999441206455,0.0,0.0,0.0,0.019999999552965164,0.0,0.0,0.0,0.019999999552965164,0.0,0.0,0.0,0.019999999552965164,0.17417816817760468,0.005985504016280174,9.62947940826416,0.03999999910593033,0.0,0.0,0.0,0.03999999910593033,0.0,0.0,0.0,0.03999999910593033
1779682950044476089,883262,1779682949986909893,imu_link,0.003714858554303646,-0.006877587176859379,0.6237220764160156,0.7816015481948853,0.0024999999441206455,0.0,0.0,0.0,0.0024999999441206455,0.0,0.0,0.0,0.0024999999441206455,0.0,0.0,0.0,0.019999999552965164,0.0,0.0,0.0,0.019999999552965164,0.0,0.0,0.0,0.019999999552965164,0.17956513166427612,0.013168109580874443,9.650428771972656,0.03999999910593033,0.0,0.0,0.0,0.03999999910593033,0.0,0.0,0.0,0.03999999910593033
1779682950068231722,883263,1779682950045909893,imu_link,0.007628166116774082,-0.0029892262537032366,0.6236878633499146,0.781624972820282,0.0024999999441206455,0.0,0.0,0.0,0.0024999999441206455,0.0,0.0,0.0,0.0024999999441206455,0.0,0.0,0.0,0.019999999552965164,0.0,0.0,0.0,0.019999999552965164,0.0,0.0,0.0,0.019999999552965164,0.14245499670505524,0.020949264988303185,9.595361709594727,0.03999999910593033,0.0,0.0,0.0,0.03999999910593033,0.0,0.0,0.0,0.03999999910593033
1779682950074504307,883264,1779682950048909893,imu_link,0.00739995576441288,-0.0036359145306050777,0.6236920356750488,0.7816211581230164,0.0024999999441206455,0.0,0.0,0.0,0.0024999999441206455,0.0,0.0,0.0,0.0024999999441206455,0.0,0.0,0.0,0.019999999552965164,0.0,0.0,0.0,0.019999999552965164,0.0,0.0,0.0,0.019999999552965164,0.1628057062625885,0.03770867735147476,9.651625633239746,0.03999999910593033,0.0,0.0,0.0,0.03999999910593033,0.0,0.0,0.0,0.03999999910593033
1779682950080213786,883265,1779682950053909893,imu_link,0.00739995576441288,-0.0036359145306050777,0.6236920356750488,0.7816211581230164,0.0024999999441206455,0.0,0.0,0.0,0.0024999999441206455,0.0,0.0,0.0,0.0024999999441206455,0.0,0.0,0.0,0.019999999552965164,0.0,0.0,0.0,0.019999999552965164,0.0,0.0,0.0,0.019999999552965164,0.1628057062625885,0.03770867735147476,9.651625633239746,0.03999999910593033,0.0,0.0,0.0,0.03999999910593033,0.0,0.0,0.0,0.03999999910593033
1779682950086075378,883266,1779682950058909893,imu_link,0.006937128026038408,-0.004217755049467087,0.6236974000930786,0.7816182374954224,0.0024999999441206455,0.0,0.0,0.0,0.0024999999441206455,0.0,0.0,0.0,0.0024999999441206455,0.0,0.0,0.0,0.019999999552965164,0.0,0.0,0.0,0.019999999552965164,0.0,0.0,0.0,0.019999999552965164,0.15682020783424377,0.005985504016280174,9.570820808410645,0.03999999910593033,0.0,0.0,0.0,0.03999999910593033,0.0,0.0,0.0,0.03999999910593033
1779682950092477629,883267,1779682950063909893,imu_link,0.006420940160751343,-0.004750323016196489,0.6237026453018188,0.7816153764724731,0.0024999999441206455,0.0,0.0,0.0,0.0024999999441206455,0.0,0.0,0.0,0.0024999999441206455,0.0,0.0,0.0,0.019999999552965164,0.0,0.0,0.0,0.019999999552965164,0.0,0.0,0.0,0.019999999552965164,0.15083470940589905,0.01975216343998909,9.606734275817871,0.03999999910593033,0.0,0.0,0.0,0.03999999910593033,0.0,0.0,0.0,0.03999999910593033
1779682950097874197,883268,1779682950068909893,imu_link,0.006420940160751343,-0.004750323016196489,0.6237026453018188,0.7816153764724731,0.0024999999441206455,0.0,0.0,0.0,0.0024999999441206455,0.0,0.0,0.0,0.0024999999441206455,0.0,0.0,0.0,0.019999999552965164,0.0,0.0,0.0,0.019999999552965164,0.0,0.0,0.0,0.019999999552965164,0.15083470940589905,0.01975216343998909,9.606734275817871,0.03999999910593033,0.0,0.0,0.0,0.03999999910593033,0.0,0.0,0.0,0.03999999910593033
1779682950118601074,883269,1779682950073909893,imu_link,0.0059212869964540005,-0.004200423136353493,0.6237052083015442,0.781620442867279,0.0024999999441206455,0.0,0.0,0.0,0.0024999999441206455,0.0,0.0,0.0,0.0024999999441206455,0.0,0.0,0.0,0.019999999552965164,0.0,0.0,0.0,0.019999999552965164,0.0,0.0,0.0,0.019999999552965164,0.12749123573303223,0.038307227194309235,9.650428771972656,0.03999999910593033,0.0,0.0,0.0,0.03999999910593033,0.0,0.0,0.0,0.03999999910593033
1779682950127454013,883270,1779682950082909893,imu_link,0.0051107751205563545,-0.005043331999331713,0.6237121820449829,0.7816157341003418,0.0024999999441206455,0.0,0.0,0.0,0.0024999999441206455,0.0,0.0,0.0,0.0024999999441206455,0.0,0.0,0.0,0.019999999552965164,0.0,0.0,0.0,0.019999999552965164,0.0,0.0,0.0,0.019999999552965164,0.13766659796237946,0.02214636467397213,9.706093788146973,0.03999999910593033,0.0,0.0,0.0,0.03999999910593033,0.0,0.0,0.0,0.03999999910593033
1779682950175589574,883271,1779682950087909893,imu_link,0.0051107751205563545,-0.005043331999331713,0.6237121820449829,0.7816157341003418,0.0024999999441206455,0.0,0.0,0.0,0.0024999999441206455,0.0,0.0,0.0,0.0024999999441206455,0.0,0.0,0.0,0.019999999552965164,0.0,0.0,0.0,0.019999999552965164,0.0,0.0,0.0,0.019999999552965164,0.13766659796237946,0.02214636467397213,9.706093788146973,0.03999999910593033,0.0,0.0,0.0,0.03999999910593033,0.0,0.0,0.0,0.03999999910593033
1779682950175604639,883272,1779682950140909893,imu_link,0.005960806738585234,-0.010392185300588608,0.6237014532089233,0.7815653085708618,0.0024999999441206455,0.0,0.0,0.0,0.0024999999441206455,0.0,0.0,0.0,0.0024999999441206455,0.0,0.0,0.0,0.019999999552965164,0.0,0.0,0.0,0.019999999552965164,0.0,0.0,0.0,0.019999999552965164,0.1801636815071106,-0.0077811554074287415,9.64564037322998,0.03999999910593033,0.0,0.0,0.0,0.03999999910593033,0.0,0.0,0.0,0.03999999910593033
1779682950175606783,883273,1779682950143909893,imu_link,0.00580912921577692,-0.009723182767629623,0.6237043142318726,0.7815727591514587,0.0024999999441206455,0.0,0.0,0.0,0.0024999999441206455,0.0,0.0,0.0,0.0024999999441206455,0.0,0.0,0.0,0.019999999552965164,0.0,0.0,0.0,0.019999999552965164,0.0,0.0,0.0,0.019999999552965164,0.12389993667602539,0.015562310814857483,9.665990829467773,0.03999999910593033,0.0,0.0,0.0,0.03999999910593033,0.0,0.0,0.0,0.03999999910593033
1779682950175610557,883274,1779682950148909893,imu_link,0.00580912921577692,-0.009723182767629623,0.6237043142318726,0.7815727591514587,0.0024999999441206455,0.0,0.0,0.0,0.0024999999441206455,0.0,0.0,0.0,0.0024999999441206455,0.0,0.0,0.0,0.019999999552965164,0.0,0.0,0.0,0.019999999552965164,0.0,0.0,0.0,0.019999999552965164,0.12389993667602539,0.015562310814857483,9.665990829467773,0.03999999910593033,0.0,0.0,0.0,0.03999999910593033,0.0,0.0,0.0,0.03999999910593033
1779682950177400874,883275,1779682950153909893,imu_link,0.0056276810355484486,-0.009001655504107475,0.6237072944641113,0.78158038854599,0.0024999999441206455,0.0,0.0,0.0,0.0024999999441206455,0.0,0.0,0.0,0.0024999999441206455,0.0,0.0,0.0,0.019999999552965164,0.0,0.0,0.0,0.019999999552965164,0.0,0.0,0.0,0.019999999552965164,0.1430535465478897,0.004189853090792894,9.66658878326416,0.03999999910593033,0.0,0.0,0.0,0.03999999910593033,0.0,0.0,0.0,0.03999999910593033
1779682950180324314,883276,1779682950158909893,imu_link,0.005770562682300806,-0.008274073712527752,0.6237064599990845,0.7815880179405212,0.0024999999441206455,0.0,0.0,0.0,0.0024999999441206455,0.0,0.0,0.0,0.0024999999441206455,0.0,0.0,0.0,0.019999999552965164,0.0,0.0,0.0,0.019999999552965164,0.0,0.0,0.0,0.019999999552965164,0.16879121959209442,0.016160860657691956,9.588777542114258,0.03999999910593033,0.0,0.0,0.0,0.03999999910593033,0.0,0.0,0.0,0.03999999910593033
1779682950189629564,883277,1779682950163909893,imu_link,0.005770562682300806,-0.008274073712527752,0.6237064599990845,0.7815880179405212,0.0024999999441206455,0.0,0.0,0.0,0.0024999999441206455,0.0,0.0,0.0,0.0024999999441206455,0.0,0.0,0.0,0.019999999552965164,0.0,0.0,0.0,0.019999999552965164,0.0,0.0,0.0,0.019999999552965164,0.16879121959209442,0.016160860657691956,9.588777542114258,0.03999999910593033,0.0,0.0,0.0,0.03999999910593033,0.0,0.0,0.0,0.03999999910593033
1779682950196053984,883278,1779682950168909893,imu_link,0.00565542234107852,-0.007540607359260321,0.6237079501152039,0.7815951704978943,0.0024999999441206455,0.0,0.0,0.0,0.0024999999441206455,0.0,0.0,0.0,0.0024999999441206455,0.0,0.0,0.0,0.019999999552965164,0.0,0.0,0.0,0.019999999552965164,0.0,0.0,0.0,0.019999999552965164,0.16220715641975403,0.005985504016280174,9.674968719482422,0.03999999910593033,0.0,0.0,0.0,0.03999999910593033,0.0,0.0,0.0,0.03999999910593033
1779682950258960741,883279,1779682950220909893,imu_link,0.004545613192021847,-0.002579823834821582,0.6237118244171143,0.7816315293312073,0.0024999999441206455,0.0,0.0,0.0,0.0024999999441206455,0.0,0.0,0.0,0.0024999999441206455,0.0,0.0,0.0,0.019999999552965164,0.0,0.0,0.0,0.019999999552965164,0.0,0.0,0.0,0.019999999552965164,0.14245499670505524,0.013766659423708916,9.653421401977539,0.03999999910593033,0.0,0.0,0.0,0.03999999910593033,0.0,0.0,0.0,0.03999999910593033
1779682950261370317,883280,1779682950223909893,imu_link,0.004902809392660856,-0.0031655544880777597,0.6237109899520874,0.7816276550292969,0.0024999999441206455,0.0,0.0,0.0,0.0024999999441206455,0.0,0.0,0.0,0.0024999999441206455,0.0,0.0,0.0,0.019999999552965164,0.0,0.0,0.0,0.019999999552965164,0.0,0.0,0.0,0.019999999552965164,0.14185644686222076,0.031124621629714966,9.592369079589844,0.03999999910593033,0.0,0.0,0.0,0.03999999910593033,0.0,0.0,0.0,0.03999999910593033
1779682950261381089,883281,1779682950228909893,imu_link,0.004902809392660856,-0.0031655544880777597,0.6237109899520874,0.7816276550292969,0.0024999999441206455,0.0,0.0,0.0,0.0024999999441206455,0.0,0.0,0.0,0.0024999999441206455,0.0,0.0,0.0,0.019999999552965164,0.0,0.0,0.0,0.019999999552965164,0.0,0.0,0.0,0.019999999552965164,0.14185644686222076,0.031124621629714966,9.592369079589844,0.03999999910593033,0.0,0.0,0.0,0.03999999910593033,0.0,0.0,0.0,0.03999999910593033
1779682950261397070,883282,1779682950233909893,imu_link,0.005247335880994797,-0.0038249080535024405,0.6237102150917053,0.7816231846809387,0.0024999999441206455,0.0,0.0,0.0,0.0024999999441206455,0.0,0.0,0.0,0.0024999999441206455,0.0,0.0,0.0,0.019999999552965164,0.0,0.0,0.0,0.019999999552965164,0.0,0.0,0.0,0.019999999552965164,0.16519992053508759,0.02454056777060032,9.656414031982422,0.03999999910593033,0.0,0.0,0.0,0.03999999910593033,0.0,0.0,0.0,0.03999999910593033
1779682950263798739,883283,1779682950238909893,imu_link,0.005616351962089539,-0.004465207457542419,0.6237087845802307,0.7816182971000671,0.0024999999441206455,0.0,0.0,0.0,0.0024999999441206455,0.0,0.0,0.0,0.0024999999441206455,0.0,0.0,0.0,0.019999999552965164,0.0,0.0,0.0,0.019999999552965164,0.0,0.0,0.0,0.019999999552965164,0.18914192914962769,0.02274491637945175,9.64803409576416,0.03999999910593033,0.0,0.0,0.0,0.03999999910593033,0.0,0.0,0.0,0.03999999910593033
1779682950268496251,883284,1779682950243909893,imu_link,0.005616351962089539,-0.004465207457542419,0.6237087845802307,0.7816182971000671,0.0024999999441206455,0.0,0.0,0.0,0.0024999999441206455,0.0,0.0,0.0,0.0024999999441206455,0.0,0.0,0.0,0.019999999552965164,0.0,0.0,0.0,0.019999999552965164,0.0,0.0,0.0,0.019999999552965164,0.18914192914962769,0.02274491637945175,9.64803409576416,0.03999999910593033,0.0,0.0,0.0,0.03999999910593033,0.0,0.0,0.0,0.03999999910593033
1779682950274820039,883285,1779682950248909893,imu_link,0.00553814135491848,-0.005206243600696325,0.6237103343009949,0.7816129922866821,0.0024999999441206455,0.0,0.0,0.0,0.0024999999441206455,0.0,0.0,0.0,0.0024999999441206455,0.0,0.0,0.0,0.019999999552965164,0.0,0.0,0.0,0.019999999552965164,0.0,0.0,0.0,0.019999999552965164,0.15801730751991272,0.008379706181585789,9.657610893249512,0.03999999910593033,0.0,0.0,0.0,0.03999999910593033,0.0,0.0,0.0,0.03999999910593033
1779682950299075189,883286,1779682950257909893,imu_link,0.006252802908420563,-0.006135016214102507,0.6237056255340576,0.7816047668457031,0.0024999999441206455,0.0,0.0,0.0,0.0024999999441206455,0.0,0.0,0.0,0.0024999999441206455,0.0,0.0,0.0,0.019999999552965164,0.0,0.0,0.0,0.019999999552965164,0.0,0.0,0.0,0.019999999552965164,0.17657236754894257,0.020350713282823563,9.661800384521484,0.03999999910593033,0.0,0.0,0.0,0.03999999910593033,0.0,0.0,0.0,0.03999999910593033
1779682950326990161,883287,1779682950312909893,imu_link,0.003452917328104377,-0.001855757087469101,0.6237173080444336,0.7816347479820251,0.0024999999441206455,0.0,0.0,0.0,0.0024999999441206455,0.0,0.0,0.0,0.0024999999441206455,0.0,0.0,0.0,0.019999999552965164,0.0,0.0,0.0,0.019999999552965164,0.0,0.0,0.0,0.019999999552965164,0.15981295704841614,0.020949264988303185,9.57441234588623,0.03999999910593033,0.0,0.0,0.0,0.03999999910593033,0.0,0.0,0.0,0.03999999910593033
1779682950333241809,883288,1779682950315909893,imu_link,0.0037390906363725662,-0.002478197682648897,0.6237170696258545,0.7816318273544312,0.0024999999441206455,0.0,0.0,0.0,0.0024999999441206455,0.0,0.0,0.0,0.0024999999441206455,0.0,0.0,0.0,0.019999999552965164,0.0,0.0,0.0,0.019999999552965164,0.0,0.0,0.0,0.019999999552965164,0.1604115068912506,0.0071826050989329815,9.631275177001953,0.03999999910593033,0.0,0.0,0.0,0.03999999910593033,0.0,0.0,0.0,0.03999999910593033
1779682950336715035,883289,1779682950320909893,imu_link,0.0037390906363725662,-0.002478197682648897,0.6237170696258545,0.7816318273544312,0.0024999999441206455,0.0,0.0,0.0,0.0024999999441206455,0.0,0.0,0.0,0.0024999999441206455,0.0,0.0,0.0,0.019999999552965164,0.0,0.0,0.0,0.019999999552965164,0.0,0.0,0.0,0.019999999552965164,0.1604115068912506,0.0071826050989329815,9.631275177001953,0.03999999910593033,0.0,0.0,0.0,0.03999999910593033,0.0,0.0,0.0,0.03999999910593033
1779682950342737072,883290,1779682950325909893,imu_link,0.004237911198288202,-0.0030312270391732454,0.6237155795097351,0.7816286087036133,0.0024999999441206455,0.0,0.0,0.0,0.0024999999441206455,0.0,0.0,0.0,0.0024999999441206455,0.0,0.0,0.0,0.019999999552965164,0.0,0.0,0.0,0.019999999552965164,0.0,0.0,0.0,0.019999999552965164,0.16998831927776337,0.03172317147254944,9.582792282104492,0.03999999910593033,0.0,0.0,0.0,0.03999999910593033,0.0,0.0,0.0,0.03999999910593033
1779682950349344486,883291,1779682950330909893,imu_link,0.00463069649413228,-0.0036572532262653112,0.62371426820755,0.7816246151924133,0.0024999999441206455,0.0,0.0,0.0,0.0024999999441206455,0.0,0.0,0.0,0.0024999999441206455,0.0,0.0,0.0,0.019999999552965164,0.0,0.0,0.0,0.019999999552965164,0.0,0.0,0.0,0.019999999552965164,0.1586158573627472,0.020350713282823563,9.634267807006836,0.03999999910593033,0.0,0.0,0.0,0.03999999910593033,0.0,0.0,0.0,0.03999999910593033
1779682950355155709,883292,1779682950335909893,imu_link,0.00463069649413228,-0.0036572532262653112,0.62371426820755,0.7816246151924133,0.0024999999441206455,0.0,0.0,0.0,0.0024999999441206455,0.0,0.0,0.0,0.0024999999441206455,0.0,0.0,0.0,0.019999999552965164,0.0,0.0,0.0,0.019999999552965164,0.0,0.0,0.0,0.019999999552965164,0.1586158573627472,0.020350713282823563,9.634267807006836,0.03999999910593033,0.0,0.0,0.0,0.03999999910593033,0.0,0.0,0.0,0.03999999910593033
1779682950361065237,883293,1779682950340909893,imu_link,0.005296932999044657,-0.003992048092186451,0.6237106919288635,0.7816216349601746,0.0024999999441206455,0.0,0.0,0.0,0.0024999999441206455,0.0,0.0,0.0,0.0024999999441206455,0.0,0.0,0.0,0.019999999552965164,0.0,0.0,0.0,0.019999999552965164,0.0,0.0,0.0,0.019999999552965164,0.12270283699035645,0.031124621629714966,9.701305389404297,0.03999999910593033,0.0,0.0,0.0,0.03999999910593033,0.0,0.0,0.0,0.03999999910593033
1779682950386658301,883294,1779682950349909893,imu_link,0.005699311848729849,-0.005092787556350231,0.6237095594406128,0.7816134095191956,0.0024999999441206455,0.0,0.0,0.0,0.0024999999441206455,0.0,0.0,0.0,0.0024999999441206455,0.0,0.0,0.0,0.019999999552965164,0.0,0.0,0.0,0.019999999552965164,0.0,0.0,0.0,0.019999999552965164,0.1777694672346115,0.013766659423708916,9.638457298278809,0.03999999910593033,0.0,0.0,0.0,0.03999999910593033,0.0,0.0,0.0,0.03999999910593033
1779682950410688934,883295,1779682950354909893,imu_link,0.005699311848729849,-0.005092787556350231,0.6237095594406128,0.7816134095191956,0.0024999999441206455,0.0,0.0,0.0,0.0024999999441206455,0.0,0.0,0.0,0.0024999999441206455,0.0,0.0,0.0,0.019999999552965164,0.0,0.0,0.0,0.019999999552965164,0.0,0.0,0.0,0.019999999552965164,0.1777694672346115,0.013766659423708916,9.638457298278809,0.03999999910593033,0.0,0.0,0.0,0.03999999910593033,0.0,0.0,0.0,0.03999999910593033
1779682950417805905,883296,1779682950403909893,imu_link,0.0029327981173992157,-0.0092737702652812,0.6237278580665588,0.7815755605697632,0.0024999999441206455,0.0,0.0,0.0,0.0024999999441206455,0.0,0.0,0.0,0.0024999999441206455,0.0,0.0,0.0,0.019999999552965164,0.0,0.0,0.0,0.019999999552965164,0.0,0.0,0.0,0.019999999552965164,0.15682020783424377,-0.011971008032560349,9.619902610778809,0.03999999910593033,0.0,0.0,0.0,0.03999999910593033,0.0,0.0,0.0,0.03999999910593033
1779682950424117960,883297,1779682950406909893,imu_link,0.0034282077103853226,-0.008798464201390743,0.6237249374389648,0.781581461429596,0.0024999999441206455,0.0,0.0,0.0,0.0024999999441206455,0.0,0.0,0.0,0.0024999999441206455,0.0,0.0,0.0,0.019999999552965164,0.0,0.0,0.0,0.019999999552965164,0.0,0.0,0.0,0.019999999552965164,0.16819266974925995,0.014963760040700436,9.678560256958008,0.03999999910593033,0.0,0.0,0.0,0.03999999910593033,0.0,0.0,0.0,0.03999999910593033
1779682950430516720,883298,1779682950411909893,imu_link,0.0034282077103853226,-0.008798464201390743,0.6237249374389648,0.781581461429596,0.0024999999441206455,0.0,0.0,0.0,0.0024999999441206455,0.0,0.0,0.0,0.0024999999441206455,0.0,0.0,0.0,0.019999999552965164,0.0,0.0,0.0,0.019999999552965164,0.0,0.0,0.0,0.019999999552965164,0.16819266974925995,0.014963760040700436,9.678560256958008,0.03999999910593033,0.0,0.0,0.0,0.03999999910593033,0.0,0.0,0.0,0.03999999910593033
1779682950436294329,883299,1779682950416909893,imu_link,0.0037230830639600754,-0.008116367273032665,0.6237239837646484,0.7815881967544556,0.0024999999441206455,0.0,0.0,0.0,0.0024999999441206455,0.0,0.0,0.0,0.0024999999441206455,0.0,0.0,0.0,0.019999999552965164,0.0,0.0,0.0,0.019999999552965164,0.0,0.0,0.0,0.019999999552965164,0.14664484560489655,-0.002992752008140087,9.643245697021484,0.03999999910593033,0.0,0.0,0.0,0.03999999910593033,0.0,0.0,0.0,0.03999999910593033
1779682950441765827,883300,1779682950421909893,imu_link,0.0042918832041323185,-0.0076444754377007484,0.6237199306488037,0.7815933227539062,0.0024999999441206455,0.0,0.0,0.0,0.0024999999441206455,0.0,0.0,0.0,0.0024999999441206455,0.0,0.0,0.0,0.019999999552965164,0.0,0.0,0.0,0.019999999552965164,0.0,0.0,0.0,0.019999999552965164,0.166995570063591,-0.009576806798577309,9.668983459472656,0.03999999910593033,0.0,0.0,0.0,0.03999999910593033,0.0,0.0,0.0,0.03999999910593033
1779682950447683324,883301,1779682950426909893,imu_link,0.0042918832041323185,-0.0076444754377007484,0.6237199306488037,0.7815933227539062,0.0024999999441206455,0.0,0.0,0.0,0.0024999999441206455,0.0,0.0,0.0,0.0024999999441206455,0.0,0.0,0.0,0.019999999552965164,0.0,0.0,0.0,0.019999999552965164,0.0,0.0,0.0,0.019999999552965164,0.166995570063591,-0.009576806798577309,9.668983459472656,0.03999999910593033,0.0,0.0,0.0,0.03999999910593033,0.0,0.0,0.0,0.03999999910593033
1779682950454222394,883302,1779682950431909893,imu_link,0.004963110666722059,-0.007323168683797121,0.6237143874168396,0.7815967798233032,0.0024999999441206455,0.0,0.0,0.0,0.0024999999441206455,0.0,0.0,0.0,0.0024999999441206455,0.0,0.0,0.0,0.019999999552965164,0.0,0.0,0.0,0.019999999552965164,0.0,0.0,0.0,0.019999999552965164,0.1735796183347702,0.002992752008140087,9.626486778259277,0.03999999910593033,0.0,0.0,0.0,0.03999999910593033,0.0,0.0,0.0,0.03999999910593033
1779682950479329779,883303,1779682950440909893,imu_link,0.005159397143870592,-0.006169468630105257,0.623712956905365,0.7816064953804016,0.0024999999441206455,0.0,0.0,0.0,0.0024999999441206455,0.0,0.0,0.0,0.0024999999441206455,0.0,0.0,0.0,0.019999999552965164,0.0,0.0,0.0,0.019999999552965164,0.0,0.0,0.0,0.019999999552965164,0.14065934717655182,0.01975216343998909,9.645041465759277,0.03999999910593033,0.0,0.0,0.0,0.03999999910593033,0.0,0.0,0.0,0.03999999910593033
1779682950505276542,883304,1779682950485909893,imu_link,0.0031766127794981003,-0.009776909835636616,0.6237243413925171,0.7815713882446289,0.0024999999441206455,0.0,0.0,0.0,0.0024999999441206455,0.0,0.0,0.0,0.0024999999441206455,0.0,0.0,0.0,0.019999999552965164,0.0,0.0,0.0,0.019999999552965164,0.0,0.0,0.0,0.019999999552965164,0.1586158573627472,-0.004189853090792894,9.661800384521484,0.03999999910593033,0.0,0.0,0.0,0.03999999910593033,0.0,0.0,0.0,0.03999999910593033
1779682950511146188,883305,1779682950488909893,imu_link,0.003439107444137335,-0.0091438889503479,0.6237239241600037,0.7815781831741333,0.0024999999441206455,0.0,0.0,0.0,0.0024999999441206455,0.0,0.0,0.0,0.0024999999441206455,0.0,0.0,0.0,0.019999999552965164,0.0,0.0,0.0,0.019999999552965164,0.0,0.0,0.0,0.019999999552965164,0.1304839849472046,0.031124621629714966,9.677363395690918,0.03999999910593033,0.0,0.0,0.0,0.03999999910593033,0.0,0.0,0.0,0.03999999910593033
1779682950517536184,883306,1779682950493909893,imu_link,0.003439107444137335,-0.0091438889503479,0.6237239241600037,0.7815781831741333,0.0024999999441206455,0.0,0.0,0.0,0.0024999999441206455,0.0,0.0,0.0,0.0024999999441206455,0.0,0.0,0.0,0.019999999552965164,0.0,0.0,0.0,0.019999999552965164,0.0,0.0,0.0,0.019999999552965164,0.1304839849472046,0.031124621629714966,9.677363395690918,0.03999999910593033,0.0,0.0,0.0,0.03999999910593033,0.0,0.0,0.0,0.03999999910593033
1779682950523304181,883307,1779682950498909893,imu_link,0.004052931908518076,-0.00872036349028349,0.623719334602356,0.7815837264060974,0.0024999999441206455,0.0,0.0,0.0,0.0024999999441206455,0.0,0.0,0.0,0.0024999999441206455,0.0,0.0,0.0,0.019999999552965164,0.0,0.0,0.0,0.019999999552965164,0.0,0.0,0.0,0.019999999552965164,0.1825578808784485,-0.0011971008498221636,9.60912799835205,0.03999999910593033,0.0,0.0,0.0,0.03999999910593033,0.0,0.0,0.0,0.03999999910593033
1779682950528614093,883308,1779682950503909893,imu_link,0.004309621639549732,-0.008027477189898491,0.6237183213233948,0.7815905809402466,0.0024999999441206455,0.0,0.0,0.0,0.0024999999441206455,0.0,0.0,0.0,0.0024999999441206455,0.0,0.0,0.0,0.019999999552965164,0.0,0.0,0.0,0.019999999552965164,0.0,0.0,0.0,0.019999999552965164,0.1562216579914093,-0.004788403399288654,9.612719535827637,0.03999999910593033,0.0,0.0,0.0,0.03999999910593033,0.0,0.0,0.0,0.03999999910593033
1779682950534793252,883309,1779682950508909893,imu_link,0.004309621639549732,-0.008027477189898491,0.6237183213233948,0.7815905809402466,0.0024999999441206455,0.0,0.0,0.0,0.0024999999441206455,0.0,0.0,0.0,0.0024999999441206455,0.0,0.0,0.0,0.019999999552965164,0.0,0.0,0.0,0.019999999552965164,0.0,0.0,0.0,0.019999999552965164,0.1562216579914093,-0.004788403399288654,9.612719535827637,0.03999999910593033,0.0,0.0,0.0,0.03999999910593033,0.0,0.0,0.0,0.03999999910593033
1779682950541318071,883310,1779682950513909893,imu_link,0.004930735100060701,-0.007615060079842806,0.6237133145332336,0.7815951108932495,0.0024999999441206455,0.0,0.0,0.0,0.0024999999441206455,0.0,0.0,0.0,0.0024999999441206455,0.0,0.0,0.0,0.019999999552965164,0.0,0.0,0.0,0.019999999552965164,0.0,0.0,0.0,0.019999999552965164,0.17717091739177704,0.03172317147254944,9.57441234588623,0.03999999910593033,0.0,0.0,0.0,0.03999999910593033,0.0,0.0,0.0,0.03999999910593033
1779682950566715424,883311,1779682950522909893,imu_link,0.006091115064918995,-0.007764397654682398,0.6237022280693054,0.7815942168235779,0.0024999999441206455,0.0,0.0,0.0,0.0024999999441206455,0.0,0.0,0.0,0.0024999999441206455,0.0,0.0,0.0,0.019999999552965164,0.0,0.0,0.0,0.019999999552965164,0.0,0.0,0.0,0.019999999552965164,0.18734627962112427,-0.005386953707784414,9.689932823181152,0.03999999910593033,0.0,0.0,0.0,0.03999999910593033,0.0,0.0,0.0,0.03999999910593033
1779682950593055287,883312,1779682950577909893,imu_link,0.003758098231628537,-0.0032176850363612175,0.6237174272537231,0.7816286683082581,0.0024999999441206455,0.0,0.0,0.0,0.0024999999441206455,0.0,0.0,0.0,0.0024999999441206455,0.0,0.0,0.0,0.019999999552965164,0.0,0.0,0.0,0.019999999552965164,0.0,0.0,0.0,0.019999999552965164,0.14365209639072418,0.0077811554074287415,9.623493194580078,0.03999999910593033,0.0,0.0,0.0,0.03999999910593033,0.0,0.0,0.0,0.03999999910593033
1779682950615562770,883313,1779682950580909893,imu_link,0.004048900678753853,-0.00383497541770339,0.6237164735794067,0.7816252708435059,0.0024999999441206455,0.0,0.0,0.0,0.0024999999441206455,0.0,0.0,0.0,0.0024999999441206455,0.0,0.0,0.0,0.019999999552965164,0.0,0.0,0.0,0.019999999552965164,0.0,0.0,0.0,0.019999999552965164,0.19692309200763702,-0.0065840547904372215,9.639654159545898,0.03999999910593033,0.0,0.0,0.0,0.03999999910593033,0.0,0.0,0.0,0.03999999910593033
1779682950617706569,883314,1779682950585909893,imu_link,0.004048900678753853,-0.00383497541770339,0.6237164735794067,0.7816252708435059,0.0024999999441206455,0.0,0.0,0.0,0.0024999999441206455,0.0,0.0,0.0,0.0024999999441206455,0.0,0.0,0.0,0.019999999552965164,0.0,0.0,0.0,0.019999999552965164,0.0,0.0,0.0,0.019999999552965164,0.19692309200763702,-0.0065840547904372215,9.639654159545898,0.03999999910593033,0.0,0.0,0.0,0.03999999910593033,0.0,0.0,0.0,0.03999999910593033
1779682950617730962,883315,1779682950590909893,imu_link,0.004114142153412104,-0.004575359635055065,0.6237165331840515,0.7816209197044373,0.0024999999441206455,0.0,0.0,0.0,0.0024999999441206455,0.0,0.0,0.0,0.0024999999441206455,0.0,0.0,0.0,0.019999999552965164,0.0,0.0,0.0,0.019999999552965164,0.0,0.0,0.0,0.019999999552965164,0.15741875767707825,-0.018555063754320145,9.676165580749512,0.03999999910593033,0.0,0.0,0.0,0.03999999910593033,0.0,0.0,0.0,0.03999999910593033
1779682950617734924,883316,1779682950595909893,imu_link,0.004561243113130331,-0.005163039080798626,0.6237137913703918,0.7816168665885925,0.0024999999441206455,0.0,0.0,0.0,0.0024999999441206455,0.0,0.0,0.0,0.0024999999441206455,0.0,0.0,0.0,0.019999999552965164,0.0,0.0,0.0,0.019999999552965164,0.0,0.0,0.0,0.019999999552965164,0.15981295704841614,0.005985504016280174,9.603741645812988,0.03999999910593033,0.0,0.0,0.0,0.03999999910593033,0.0,0.0,0.0,0.03999999910593033
1779682950621526667,883317,1779682950600909893,imu_link,0.004561243113130331,-0.005163039080798626,0.6237137913703918,0.7816168665885925,0.0024999999441206455,0.0,0.0,0.0,0.0024999999441206455,0.0,0.0,0.0,0.0024999999441206455,0.0,0.0,0.0,0.019999999552965164,0.0,0.0,0.0,0.019999999552965164,0.0,0.0,0.0,0.019999999552965164,0.15981295704841614,0.005985504016280174,9.603741645812988,0.03999999910593033,0.0,0.0,0.0,0.03999999910593033,0.0,0.0,0.0,0.03999999910593033
1779682950627761478,883318,1779682950605909893,imu_link,0.004962679464370012,-0.005792179610580206,0.623711109161377,0.7816121578216553,0.0024999999441206455,0.0,0.0,0.0,0.0024999999441206455,0.0,0.0,0.0,0.0024999999441206455,0.0,0.0,0.0,0.019999999552965164,0.0,0.0,0.0,0.019999999552965164,0.0,0.0,0.0,0.019999999552965164,0.16759411990642548,0.002992752008140087,9.660005569458008,0.03999999910593033,0.0,0.0,0.0,0.03999999910593033,0.0,0.0,0.0,0.03999999910593033
1779682950653203808,883319,1779682950614909893,imu_link,0.00554004916921258,-0.006805662997066975,0.623706579208374,0.7816037535667419,0.0024999999441206455,0.0,0.0,0.0,0.0024999999441206455,0.0,0.0,0.0,0.0024999999441206455,0.0,0.0,0.0,0.019999999552965164,0.0,0.0,0.0,0.019999999552965164,0.0,0.0,0.0,0.019999999552965164,0.17058686912059784,0.0011971008498221636,9.560646057128906,0.03999999910593033,0.0,0.0,0.0,0.03999999910593033,0.0,0.0,0.0,0.03999999910593033
1779682950659448201,883320,1779682950619909893,imu_link,0.00554004916921258,-0.006805662997066975,0.623706579208374,0.7816037535667419,0.0024999999441206455,0.0,0.0,0.0,0.0024999999441206455,0.0,0.0,0.0,0.0024999999441206455,0.0,0.0,0.0,0.019999999552965164,0.0,0.0,0.0,0.019999999552965164,0.0,0.0,0.0,0.019999999552965164,0.17058686912059784,0.0011971008498221636,9.560646057128906,0.03999999910593033,0.0,0.0,0.0,0.03999999910593033,0.0,0.0,0.0,0.03999999910593033
1779682950684494801,883321,1779682950668909893,imu_link,0.00895699393004179,-0.0031253336928784847,0.6236684322357178,0.7816259264945984,0.0024999999441206455,0.0,0.0,0.0,0.0024999999441206455,0.0,0.0,0.0,0.0024999999441206455,0.0,0.0,0.0,0.019999999552965164,0.0,0.0,0.0,0.019999999552965164,0.0,0.0,0.0,0.019999999552965164,0.16400282084941864,0.03232172131538391,9.606135368347168,0.03999999910593033,0.0,0.0,0.0,0.03999999910593033,0.0,0.0,0.0,0.03999999910593033
1779682950691288341,883322,1779682950671909893,imu_link,0.008579467423260212,-0.0036937445402145386,0.6236741542816162,0.7816230654716492,0.0024999999441206455,0.0,0.0,0.0,0.0024999999441206455,0.0,0.0,0.0,0.0024999999441206455,0.0,0.0,0.0,0.019999999552965164,0.0,0.0,0.0,0.019999999552965164,0.0,0.0,0.0,0.019999999552965164,0.1777694672346115,0.025737667456269264,9.634865760803223,0.03999999910593033,0.0,0.0,0.0,0.03999999910593033,0.0,0.0,0.0,0.03999999910593033
1779682950698550413,883323,1779682950676909893,imu_link,0.008579467423260212,-0.0036937445402145386,0.6236741542816162,0.7816230654716492,0.0024999999441206455,0.0,0.0,0.0,0.0024999999441206455,0.0,0.0,0.0,0.0024999999441206455,0.0,0.0,0.0,0.019999999552965164,0.0,0.0,0.0,0.019999999552965164,0.0,0.0,0.0,0.019999999552965164,0.1777694672346115,0.025737667456269264,9.634865760803223,0.03999999910593033,0.0,0.0,0.0,0.03999999910593033,0.0,0.0,0.0,0.03999999910593033
1779682950704573567,883324,1779682950681909893,imu_link,0.008080100640654564,-0.004243582487106323,0.6236805319786072,0.7816205620765686,0.0024999999441206455,0.0,0.0,0.0,0.0024999999441206455,0.0,0.0,0.0,0.0024999999441206455,0.0,0.0,0.0,0.019999999552965164,0.0,0.0,0.0,0.019999999552965164,0.0,0.0,0.0,0.019999999552965164,0.17298106849193573,0.004189853090792894,9.701903343200684,0.03999999910593033,0.0,0.0,0.0,0.03999999910593033,0.0,0.0,0.0,0.03999999910593033
1779682950709600201,883325,1779682950686909893,imu_link,0.0075158108957111835,-0.004721465986222029,0.6236868500709534,0.7816184163093567,0.0024999999441206455,0.0,0.0,0.0,0.0024999999441206455,0.0,0.0,0.0,0.0024999999441206455,0.0,0.0,0.0,0.019999999552965164,0.0,0.0,0.0,0.019999999552965164,0.0,0.0,0.0,0.019999999552965164,0.1628057062625885,0.0017956512747332454,9.619902610778809,0.03999999910593033,0.0,0.0,0.0,0.03999999910593033,0.0,0.0,0.0,0.03999999910593033
1779682950715610297,883326,1779682950691909893,imu_link,0.0075158108957111835,-0.004721465986222029,0.6236868500709534,0.7816184163093567,0.0024999999441206455,0.0,0.0,0.0,0.0024999999441206455,0.0,0.0,0.0,0.0024999999441206455,0.0,0.0,0.0,0.019999999552965164,0.0,0.0,0.0,0.019999999552965164,0.0,0.0,0.0,0.019999999552965164,0.1628057062625885,0.0017956512747332454,9.619902610778809,0.03999999910593033,0.0,0.0,0.0,0.03999999910593033,0.0,0.0,0.0,0.03999999910593033
1779682950721659760,883327,1779682950696909893,imu_link,0.006924815010279417,-0.005177125334739685,0.6236929893493652,0.7816160917282104,0.0024999999441206455,0.0,0.0,0.0,0.0024999999441206455,0.0,0.0,0.0,0.0024999999441206455,0.0,0.0,0.0,0.019999999552965164,0.0,0.0,0.0,0.019999999552965164,0.0,0.0,0.0,0.019999999552965164,0.16101005673408508,0.010175356641411781,9.654019355773926,0.03999999910593033,0.0,0.0,0.0,0.03999999910593033,0.0,0.0,0.0,0.03999999910593033
1779682950745386502,883328,1779682950705909893,imu_link,0.0058577959425747395,-0.005648814607411623,0.6237025856971741,0.7816140055656433,0.0024999999441206455,0.0,0.0,0.0,0.0024999999441206455,0.0,0.0,0.0,0.0024999999441206455,0.0,0.0,0.0,0.019999999552965164,0.0,0.0,0.0,0.019999999552965164,0.0,0.0,0.0,0.019999999552965164,0.15143325924873352,0.002394201699644327,9.676764488220215,0.03999999910593033,0.0,0.0,0.0,0.03999999910593033,0.0,0.0,0.0,0.03999999910593033
1779682950769924400,883329,1779682950758909893,imu_link,0.0024660879280418158,-0.009215198457241058,0.6237260699272156,0.7815792560577393,0.0024999999441206455,0.0,0.0,0.0,0.0024999999441206455,0.0,0.0,0.0,0.0024999999441206455,0.0,0.0,0.0,0.019999999552965164,0.0,0.0,0.0,0.019999999552965164,0.0,0.0,0.0,0.019999999552965164,0.15981295704841614,-0.004788403399288654,9.686341285705566,0.03999999910593033,0.0,0.0,0.0,0.03999999910593033,0.0,0.0,0.0,0.03999999910593033
1779682950776573873,883330,1779682950761909893,imu_link,0.003069741651415825,-0.008894267491996288,0.6237218976020813,0.7815842032432556,0.0024999999441206455,0.0,0.0,0.0,0.0024999999441206455,0.0,0.0,0.0,0.0024999999441206455,0.0,0.0,0.0,0.019999999552965164,0.0,0.0,0.0,0.019999999552965164,0.0,0.0,0.0,0.019999999552965164,0.1777694672346115,-0.02753331884741783,9.671377182006836,0.03999999910593033,0.0,0.0,0.0,0.03999999910593033,0.0,0.0,0.0,0.03999999910593033
1779682950781450455,883331,1779682950766909893,imu_link,0.003069741651415825,-0.008894267491996288,0.6237218976020813,0.7815842032432556,0.0024999999441206455,0.0,0.0,0.0,0.0024999999441206455,0.0,0.0,0.0,0.0024999999441206455,0.0,0.0,0.0,0.019999999552965164,0.0,0.0,0.0,0.019999999552965164,0.0,0.0,0.0,0.019999999552965164,0.1777694672346115,-0.02753331884741783,9.671377182006836,0.03999999910593033,0.0,0.0,0.0,0.03999999910593033,0.0,0.0,0.0,0.03999999910593033
1779682950788237583,883332,1779682950771909893,imu_link,0.0037998475600034,-0.008757209405303001,0.6237156987190247,0.781587541103363,0.0024999999441206455,0.0,0.0,0.0,0.0024999999441206455,0.0,0.0,0.0,0.0024999999441206455,0.0,0.0,0.0,0.019999999552965164,0.0,0.0,0.0,0.019999999552965164,0.0,0.0,0.0,0.019999999552965164,0.18794482946395874,-0.02753331884741783,9.609726905822754,0.03999999910593033,0.0,0.0,0.0,0.03999999910593033,0.0,0.0,0.0,0.03999999910593033
1779682950793926367,883333,1779682950776909893,imu_link,0.0043554469011723995,-0.008268944919109344,0.6237115859985352,0.7815932035446167,0.0024999999441206455,0.0,0.0,0.0,0.0024999999441206455,0.0,0.0,0.0,0.0024999999441206455,0.0,0.0,0.0,0.019999999552965164,0.0,0.0,0.0,0.019999999552965164,0.0,0.0,0.0,0.019999999552965164,0.1759738177061081,0.005985504016280174,9.68694019317627,0.03999999910593033,0.0,0.0,0.0,0.03999999910593033,0.0,0.0,0.0,0.03999999910593033
1779682950799775555,883334,1779682950781909893,imu_link,0.0043554469011723995,-0.008268944919109344,0.6237115859985352,0.7815932035446167,0.0024999999441206455,0.0,0.0,0.0,0.0024999999441206455,0.0,0.0,0.0,0.0024999999441206455,0.0,0.0,0.0,0.019999999552965164,0.0,0.0,0.0,0.019999999552965164,0.0,0.0,0.0,0.019999999552965164,0.1759738177061081,0.005985504016280174,9.68694019317627,0.03999999910593033,0.0,0.0,0.0,0.03999999910593033,0.0,0.0,0.0,0.03999999910593033
1779682950806012786,883335,1779682950786909893,imu_link,0.004832073114812374,-0.007695641368627548,0.6237080097198486,0.7815990447998047,0.0024999999441206455,0.0,0.0,0.0,0.0024999999441206455,0.0,0.0,0.0,0.0024999999441206455,0.0,0.0,0.0,0.019999999552965164,0.0,0.0,0.0,0.019999999552965164,0.0,0.0,0.0,0.019999999552965164,0.16639702022075653,0.018555063754320145,9.651625633239746,0.03999999910593033,0.0,0.0,0.0,0.03999999910593033,0.0,0.0,0.0,0.03999999910593033
1779682950830998232,883336,1779682950795909893,imu_link,0.0052685607224702835,-0.006615174934267998,0.6237047910690308,0.7816087603569031,0.0024999999441206455,0.0,0.0,0.0,0.0024999999441206455,0.0,0.0,0.0,0.0024999999441206455,0.0,0.0,0.0,0.019999999552965164,0.0,0.0,0.0,0.019999999552965164,0.0,0.0,0.0,0.019999999552965164,0.16160860657691956,0.002992752008140087,9.658807754516602,0.03999999910593033,0.0,0.0,0.0,0.03999999910593033,0.0,0.0,0.0,0.03999999910593033
1779682950836614068,883337,1779682950800909893,imu_link,0.0052685607224702835,-0.006615174934267998,0.6237047910690308,0.7816087603569031,0.0024999999441206455,0.0,0.0,0.0,0.0024999999441206455,0.0,0.0,0.0,0.0024999999441206455,0.0,0.0,0.0,0.019999999552965164,0.0,0.0,0.0,0.019999999552965164,0.0,0.0,0.0,0.019999999552965164,0.16160860657691956,0.002992752008140087,9.658807754516602,0.03999999910593033,0.0,0.0,0.0,0.03999999910593033,0.0,0.0,0.0,0.03999999910593033
1779682950861381129,883338,1779682950845909893,imu_link,0.005783316679298878,-0.011208931915462017,0.6236937046051025,0.781561553478241,0.0024999999441206455,0.0,0.0,0.0,0.0024999999441206455,0.0,0.0,0.0,0.0024999999441206455,0.0,0.0,0.0,0.019999999552965164,0.0,0.0,0.0,0.019999999552965164,0.0,0.0,0.0,0.019999999552965164,0.1693897694349289,-0.004189853090792894,9.634865760803223,0.03999999910593033,0.0,0.0,0.0,0.03999999910593033,0.0,0.0,0.0,0.03999999910593033
1779682950867378948,883339,1779682950848909893,imu_link,0.005818448029458523,-0.010511025786399841,0.6236948370933533,0.7815700769424438,0.0024999999441206455,0.0,0.0,0.0,0.0024999999441206455,0.0,0.0,0.0,0.0024999999441206455,0.0,0.0,0.0,0.019999999552965164,0.0,0.0,0.0,0.019999999552965164,0.0,0.0,0.0,0.019999999552965164,0.1843535304069519,0.0,9.627683639526367,0.03999999910593033,0.0,0.0,0.0,0.03999999910593033,0.0,0.0,0.0,0.03999999910593033
1779682950872727739,883340,1779682950853909893,imu_link,0.005818448029458523,-0.010511025786399841,0.6236948370933533,0.7815700769424438,0.0024999999441206455,0.0,0.0,0.0,0.0024999999441206455,0.0,0.0,0.0,0.0024999999441206455,0.0,0.0,0.0,0.019999999552965164,0.0,0.0,0.0,0.019999999552965164,0.0,0.0,0.0,0.019999999552965164,0.1843535304069519,0.0,9.627683639526367,0.03999999910593033,0.0,0.0,0.0,0.03999999910593033,0.0,0.0,0.0,0.03999999910593033
1779682950878303263,883341,1779682950858909893,imu_link,0.00568062299862504,-0.009778816252946854,0.6236977577209473,0.7815782427787781,0.0024999999441206455,0.0,0.0,0.0,0.0024999999441206455,0.0,0.0,0.0,0.0024999999441206455,0.0,0.0,0.0,0.019999999552965164,0.0,0.0,0.0,0.019999999552965164,0.0,0.0,0.0,0.019999999552965164,0.16639702022075653,-0.005985504016280174,9.624691009521484,0.03999999910593033,0.0,0.0,0.0,0.03999999910593033,0.0,0.0,0.0,0.03999999910593033
1779682950884435221,883342,1779682950863909893,imu_link,0.005690144374966621,-0.009037252515554428,0.6236987113952637,0.7815864086151123,0.0024999999441206455,0.0,0.0,0.0,0.0024999999441206455,0.0,0.0,0.0,0.0024999999441206455,0.0,0.0,0.0,0.019999999552965164,0.0,0.0,0.0,0.019999999552965164,0.0,0.0,0.0,0.019999999552965164,0.1562216579914093,0.01735796220600605,9.68155288696289,0.03999999910593033,0.0,0.0,0.0,0.03999999910593033,0.0,0.0,0.0,0.03999999910593033
1779682950890522328,883343,1779682950868909893,imu_link,0.005690144374966621,-0.009037252515554428,0.6236987113952637,0.7815864086151123,0.0024999999441206455,0.0,0.0,0.0,0.0024999999441206455,0.0,0.0,0.0,0.0024999999441206455,0.0,0.0,0.0,0.019999999552965164,0.0,0.0,0.0,0.019999999552965164,0.0,0.0,0.0,0.019999999552965164,0.1562216579914093,0.01735796220600605,9.68155288696289,0.03999999910593033,0.0,0.0,0.0,0.03999999910593033,0.0,0.0,0.0,0.03999999910593033
1779682950896705128,883344,1779682950873909893,imu_link,0.005686833057552576,-0.008294212631881237,0.623699426651001,0.7815941572189331,0.0024999999441206455,0.0,0.0,0.0,0.0024999999441206455,0.0,0.0,0.0,0.0024999999441206455,0.0,0.0,0.0,0.019999999552965164,0.0,0.0,0.0,0.019999999552965164,0.0,0.0,0.0,0.019999999552965164,0.17417816817760468,0.0011971008498221636,9.642646789550781,0.03999999910593033,0.0,0.0,0.0,0.03999999910593033,0.0,0.0,0.0,0.03999999910593033
1779682950940041866,883345,1779682950930909893,imu_link,0.006471695378422737,-0.0027804009150713682,0.6236858367919922,0.7816377878189087,0.0024999999441206455,0.0,0.0,0.0,0.0024999999441206455,0.0,0.0,0.0,0.0024999999441206455,0.0,0.0,0.0,0.019999999552965164,0.0,0.0,0.0,0.019999999552965164,0.0,0.0,0.0,0.019999999552965164,0.17836801707744598,0.0017956512747332454,9.634267807006836,0.03999999910593033,0.0,0.0,0.0,0.03999999910593033,0.0,0.0,0.0,0.03999999910593033
1779682950950839840,883346,1779682950933909893,imu_link,0.006294004153460264,-0.0034429661463946104,0.6236890554428101,0.7816341519355774,0.0024999999441206455,0.0,0.0,0.0,0.0024999999441206455,0.0,0.0,0.0,0.0024999999441206455,0.0,0.0,0.0,0.019999999552965164,0.0,0.0,0.0,0.019999999552965164,0.0,0.0,0.0,0.019999999552965164,0.16340425610542297,0.005985504016280174,9.687538146972656,0.03999999910593033,0.0,0.0,0.0,0.03999999910593033,0.0,0.0,0.0,0.03999999910593033
1779682950955237318,883347,1779682950938909893,imu_link,0.006294004153460264,-0.0034429661463946104,0.6236890554428101,0.7816341519355774,0.0024999999441206455,0.0,0.0,0.0,0.0024999999441206455,0.0,0.0,0.0,0.0024999999441206455,0.0,0.0,0.0,0.019999999552965164,0.0,0.0,0.0,0.019999999552965164,0.0,0.0,0.0,0.019999999552965164,0.16340425610542297,0.005985504016280174,9.687538146972656,0.03999999910593033,0.0,0.0,0.0,0.03999999910593033,0.0,0.0,0.0,0.03999999910593033
1779682950961310061,883348,1779682950943909893,imu_link,0.005809360183775425,-0.004005852621048689,0.6236937046051025,0.7816316485404968,0.0024999999441206455,0.0,0.0,0.0,0.0024999999441206455,0.0,0.0,0.0,0.0024999999441206455,0.0,0.0,0.0,0.019999999552965164,0.0,0.0,0.0,0.019999999552965164,0.0,0.0,0.0,0.019999999552965164,0.13407529890537262,0.018555063754320145,9.633668899536133,0.03999999910593033,0.0,0.0,0.0,0.03999999910593033,0.0,0.0,0.0,0.03999999910593033
1779682950966782542,883349,1779682950948909893,imu_link,0.005517226178199053,-0.004686701577156782,0.6236968040466309,0.781627357006073,0.0024999999441206455,0.0,0.0,0.0,0.0024999999441206455,0.0,0.0,0.0,0.0024999999441206455,0.0,0.0,0.0,0.019999999552965164,0.0,0.0,0.0,0.019999999552965164,0.0,0.0,0.0,0.019999999552965164,0.14604629576206207,0.009576806798577309,9.62947940826416,0.03999999910593033,0.0,0.0,0.0,0.03999999910593033,0.0,0.0,0.0,0.03999999910593033
1779682950972228062,883350,1779682950953909893,imu_link,0.005517226178199053,-0.004686701577156782,0.6236968040466309,0.781627357006073,0.0024999999441206455,0.0,0.0,0.0,0.0024999999441206455,0.0,0.0,0.0,0.0024999999441206455,0.0,0.0,0.0,0.019999999552965164,0.0,0.0,0.0,0.019999999552965164,0.0,0.0,0.0,0.019999999552965164,0.14604629576206207,0.009576806798577309,9.62947940826416,0.03999999910593033,0.0,0.0,0.0,0.03999999910593033,0.0,0.0,0.0,0.03999999910593033
1779682950978083108,883351,1779682950958909893,imu_link,0.0056931027211248875,-0.005411382764577866,0.6236963272094727,0.7816216945648193,0.0024999999441206455,0.0,0.0,0.0,0.0024999999441206455,0.0,0.0,0.0,0.0024999999441206455,0.0,0.0,0.0,0.019999999552965164,0.0,0.0,0.0,0.019999999552965164,0.0,0.0,0.0,0.019999999552965164,0.1586158573627472,0.016759412363171577,9.643245697021484,0.03999999910593033,0.0,0.0,0.0,0.03999999910593033,0.0,0.0,0.0,0.03999999910593033
1779682951002177995,883352,1779682950967909893,imu_link,0.0054060895927250385,-0.006540491245687008,0.623699426651001,0.7816126942634583,0.0024999999441206455,0.0,0.0,0.0,0.0024999999441206455,0.0,0.0,0.0,0.0024999999441206455,0.0,0.0,0.0,0.019999999552965164,0.0,0.0,0.0,0.019999999552965164,0.0,0.0,0.0,0.019999999552965164,0.1711854189634323,-0.0065840547904372215,9.667187690734863,0.03999999910593033,0.0,0.0,0.0,0.03999999910593033,0.0,0.0,0.0,0.03999999910593033
1779682951008115251,883353,1779682950972909893,imu_link,0.0054060895927250385,-0.006540491245687008,0.623699426651001,0.7816126942634583,0.0024999999441206455,0.0,0.0,0.0,0.0024999999441206455,0.0,0.0,0.0,0.0024999999441206455,0.0,0.0,0.0,0.019999999552965164,0.0,0.0,0.0,0.019999999552965164,0.0,0.0,0.0,0.019999999552965164,0.1711854189634323,-0.0065840547904372215,9.667187690734863,0.03999999910593033,0.0,0.0,0.0,0.03999999910593033,0.0,0.0,0.0,0.03999999910593033
1779682951032081303,883354,1779682951020909893,imu_link,0.008292989805340767,-0.0025558287743479013,0.6236667633056641,0.781636655330658,0.0024999999441206455,0.0,0.0,0.0,0.0024999999441206455,0.0,0.0,0.0,0.0024999999441206455,0.0,0.0,0.0,0.019999999552965164,0.0,0.0,0.0,0.019999999552965164,0.0,0.0,0.0,0.019999999552965164,0.15682020783424377,0.02753331884741783,9.644442558288574,0.03999999910593033,0.0,0.0,0.0,0.03999999910593033,0.0,0.0,0.0,0.03999999910593033
1779682951038966916,883355,1779682951023909893,imu_link,0.007899324409663677,-0.0031138029880821705,0.6236721873283386,0.7816343903541565,0.0024999999441206455,0.0,0.0,0.0,0.0024999999441206455,0.0,0.0,0.0,0.0024999999441206455,0.0,0.0,0.0,0.019999999552965164,0.0,0.0,0.0,0.019999999552965164,0.0,0.0,0.0,0.019999999552965164,0.16101005673408508,0.016160860657691956,9.643245697021484,0.03999999910593033,0.0,0.0,0.0,0.03999999910593033,0.0,0.0,0.0,0.03999999910593033
1779682951046308323,883356,1779682951028909893,imu_link,0.007899324409663677,-0.0031138029880821705,0.6236721873283386,0.7816343903541565,0.0024999999441206455,0.0,0.0,0.0,0.0024999999441206455,0.0,0.0,0.0,0.0024999999441206455,0.0,0.0,0.0,0.019999999552965164,0.0,0.0,0.0,0.019999999552965164,0.0,0.0,0.0,0.019999999552965164,0.16101005673408508,0.016160860657691956,9.643245697021484,0.03999999910593033,0.0,0.0,0.0,0.03999999910593033,0.0,0.0,0.0,0.03999999910593033
1779682951051165520,883357,1779682951033909893,imu_link,0.007418034598231316,-0.0036804606206715107,0.6236779689788818,0.7816320657730103,0.0024999999441206455,0.0,0.0,0.0,0.0024999999441206455,0.0,0.0,0.0,0.0024999999441206455,0.0,0.0,0.0,0.019999999552965164,0.0,0.0,0.0,0.019999999552965164,0.0,0.0,0.0,0.019999999552965164,0.15801730751991272,0.0011971008498221636,9.661800384521484,0.03999999910593033,0.0,0.0,0.0,0.03999999910593033,0.0,0.0,0.0,0.03999999910593033
1779682951056639667,883358,1779682951038909893,imu_link,0.0069999308325350285,-0.004292445722967386,0.6236830949783325,0.7816287279129028,0.0024999999441206455,0.0,0.0,0.0,0.0024999999441206455,0.0,0.0,0.0,0.0024999999441206455,0.0,0.0,0.0,0.019999999552965164,0.0,0.0,0.0,0.019999999552965164,0.0,0.0,0.0,0.019999999552965164,0.17178396880626678,-0.018555063754320145,9.678560256958008,0.03999999910593033,0.0,0.0,0.0,0.03999999910593033,0.0,0.0,0.0,0.03999999910593033
1779682951062607914,883359,1779682951043909893,imu_link,0.0069999308325350285,-0.004292445722967386,0.6236830949783325,0.7816287279129028,0.0024999999441206455,0.0,0.0,0.0,0.0024999999441206455,0.0,0.0,0.0,0.0024999999441206455,0.0,0.0,0.0,0.019999999552965164,0.0,0.0,0.0,0.019999999552965164,0.0,0.0,0.0,0.019999999552965164,0.17178396880626678,-0.018555063754320145,9.678560256958008,0.03999999910593033,0.0,0.0,0.0,0.03999999910593033,0.0,0.0,0.0,0.03999999910593033
1779682951068343705,883360,1779682951048909893,imu_link,0.006478901021182537,-0.004826022312045097,0.6236883997917175,0.7816258072853088,0.0024999999441206455,0.0,0.0,0.0,0.0024999999441206455,0.0,0.0,0.0,0.0024999999441206455,0.0,0.0,0.0,0.019999999552965164,0.0,0.0,0.0,0.019999999552965164,0.0,0.0,0.0,0.019999999552965164,0.152031809091568,0.02693476900458336,9.627683639526367,0.03999999910593033,0.0,0.0,0.0,0.03999999910593033,0.0,0.0,0.0,0.03999999910593033
1779682951091726681,883361,1779682951057909893,imu_link,0.00555479247123003,-0.005537484772503376,0.6236966848373413,0.7816216945648193,0.0024999999441206455,0.0,0.0,0.0,0.0024999999441206455,0.0,0.0,0.0,0.0024999999441206455,0.0,0.0,0.0,0.019999999552965164,0.0,0.0,0.0,0.019999999552965164,0.0,0.0,0.0,0.019999999552965164,0.1496376097202301,-0.012569558806717396,9.63306999206543,0.03999999910593033,0.0,0.0,0.0,0.03999999910593033,0.0,0.0,0.0,0.03999999910593033
1779682951117678145,883362,1779682951100909893,imu_link,0.006676347926259041,-0.009294028393924236,0.6236864328384399,0.7815853357315063,0.0024999999441206455,0.0,0.0,0.0,0.0024999999441206455,0.0,0.0,0.0,0.0024999999441206455,0.0,0.0,0.0,0.019999999552965164,0.0,0.0,0.0,0.019999999552965164,0.0,0.0,0.0,0.019999999552965164,0.15682020783424377,0.014365210197865963,9.625887870788574,0.03999999910593033,0.0,0.0,0.0,0.03999999910593033,0.0,0.0,0.0,0.03999999910593033
1779682951123912166,883363,1779682951103909893,imu_link,0.006460082717239857,-0.00864669680595398,0.6236892342567444,0.7815924882888794,0.0024999999441206455,0.0,0.0,0.0,0.0024999999441206455,0.0,0.0,0.0,0.0024999999441206455,0.0,0.0,0.0,0.019999999552965164,0.0,0.0,0.0,0.019999999552965164,0.0,0.0,0.0,0.019999999552965164,0.1759738177061081,0.005386953707784414,9.678560256958008,0.03999999910593033,0.0,0.0,0.0,0.03999999910593033,0.0,0.0,0.0,0.03999999910593033
1779682951130243139,883364,1779682951108909893,imu_link,0.006460082717239857,-0.00864669680595398,0.6236892342567444,0.7815924882888794,0.0024999999441206455,0.0,0.0,0.0,0.0024999999441206455,0.0,0.0,0.0,0.0024999999441206455,0.0,0.0,0.0,0.019999999552965164,0.0,0.0,0.0,0.019999999552965164,0.0,0.0,0.0,0.019999999552965164,0.1759738177061081,0.005386953707784414,9.678560256958008,0.03999999910593033,0.0,0.0,0.0,0.03999999910593033,0.0,0.0,0.0,0.03999999910593033
1779682951135019884,883365,1779682951113909893,imu_link,0.005915580317378044,-0.008140566758811474,0.6236950159072876,0.7815974354743958,0.0024999999441206455,0.0,0.0,0.0,0.0024999999441206455,0.0,0.0,0.0,0.0024999999441206455,0.0,0.0,0.0,0.019999999552965164,0.0,0.0,0.0,0.019999999552965164,0.0,0.0,0.0,0.019999999552965164,0.18136078119277954,-0.010773907415568829,9.680953979492188,0.03999999910593033,0.0,0.0,0.0,0.03999999910593033,0.0,0.0,0.0,0.03999999910593033
1779682951140487908,883366,1779682951118909893,imu_link,0.005917994771152735,-0.007399695459753275,0.6236951351165771,0.7816047072410583,0.0024999999441206455,0.0,0.0,0.0,0.0024999999441206455,0.0,0.0,0.0,0.0024999999441206455,0.0,0.0,0.0,0.019999999552965164,0.0,0.0,0.0,0.019999999552965164,0.0,0.0,0.0,0.019999999552965164,0.16101005673408508,0.017956512048840523,9.661800384521484,0.03999999910593033,0.0,0.0,0.0,0.03999999910593033,0.0,0.0,0.0,0.03999999910593033
1779682951148445444,883367,1779682951123909893,imu_link,0.005917994771152735,-0.007399695459753275,0.6236951351165771,0.7816047072410583,0.0024999999441206455,0.0,0.0,0.0,0.0024999999441206455,0.0,0.0,0.0,0.0024999999441206455,0.0,0.0,0.0,0.019999999552965164,0.0,0.0,0.0,0.019999999552965164,0.0,0.0,0.0,0.019999999552965164,0.16101005673408508,0.017956512048840523,9.661800384521484,0.03999999910593033,0.0,0.0,0.0,0.03999999910593033,0.0,0.0,0.0,0.03999999910593033
1779682951152748781,883368,1779682951128909893,imu_link,0.005757234524935484,-0.006671253591775894,0.623696506023407,0.781611442565918,0.0024999999441206455,0.0,0.0,0.0,0.0024999999441206455,0.0,0.0,0.0,0.0024999999441206455,0.0,0.0,0.0,0.019999999552965164,0.0,0.0,0.0,0.019999999552965164,0.0,0.0,0.0,0.019999999552965164,0.14724339544773102,0.017956512048840523,9.677961349487305,0.03999999910593033,0.0,0.0,0.0,0.03999999910593033,0.0,0.0,0.0,0.03999999910593033
1779682951177201723,883369,1779682951137909893,imu_link,0.00528514152392745,-0.005605414509773254,0.6236998438835144,0.781620442867279,0.0024999999441206455,0.0,0.0,0.0,0.0024999999441206455,0.0,0.0,0.0,0.0024999999441206455,0.0,0.0,0.0,0.019999999552965164,0.0,0.0,0.0,0.019999999552965164,0.0,0.0,0.0,0.019999999552965164,0.14006079733371735,0.014365210197865963,9.64564037322998,0.03999999910593033,0.0,0.0,0.0,0.03999999910593033,0.0,0.0,0.0,0.03999999910593033
1779682951200997553,883370,1779682951188909893,imu_link,0.006626317277550697,-0.010130814276635647,0.6236855387687683,0.7815761566162109,0.0024999999441206455,0.0,0.0,0.0,0.0024999999441206455,0.0,0.0,0.0,0.0024999999441206455,0.0,0.0,0.0,0.019999999552965164,0.0,0.0,0.0,0.019999999552965164,0.0,0.0,0.0,0.019999999552965164,0.16220715641975403,0.0065840547904372215,9.651625633239746,0.03999999910593033,0.0,0.0,0.0,0.03999999910593033,0.0,0.0,0.0,0.03999999910593033
1779682951207306925,883371,1779682951191909893,imu_link,0.006439767777919769,-0.009469440206885338,0.6236883401870728,0.7815837264060974,0.0024999999441206455,0.0,0.0,0.0,0.0024999999441206455,0.0,0.0,0.0,0.0024999999441206455,0.0,0.0,0.0,0.019999999552965164,0.0,0.0,0.0,0.019999999552965164,0.0,0.0,0.0,0.019999999552965164,0.15322890877723694,0.011372458189725876,9.641449928283691,0.03999999910593033,0.0,0.0,0.0,0.03999999910593033,0.0,0.0,0.0,0.03999999910593033
1779682951212943683,883372,1779682951196909893,imu_link,0.006439767777919769,-0.009469440206885338,0.6236883401870728,0.7815837264060974,0.0024999999441206455,0.0,0.0,0.0,0.0024999999441206455,0.0,0.0,0.0,0.0024999999441206455,0.0,0.0,0.0,0.019999999552965164,0.0,0.0,0.0,0.019999999552965164,0.0,0.0,0.0,0.019999999552965164,0.15322890877723694,0.011372458189725876,9.641449928283691,0.03999999910593033,0.0,0.0,0.0,0.03999999910593033,0.0,0.0,0.0,0.03999999910593033
1779682951218208305,883373,1779682951201909893,imu_link,0.0060637635178864,-0.008829563856124878,0.62369304895401,0.7815905213356018,0.0024999999441206455,0.0,0.0,0.0,0.0024999999441206455,0.0,0.0,0.0,0.0024999999441206455,0.0,0.0,0.0,0.019999999552965164,0.0,0.0,0.0,0.019999999552965164,0.0,0.0,0.0,0.019999999552965164,0.13587094843387604,-0.004788403399288654,9.619902610778809,0.03999999910593033,0.0,0.0,0.0,0.03999999910593033,0.0,0.0,0.0,0.03999999910593033
1779682951224026263,883374,1779682951206909893,imu_link,0.005593608599156141,-0.008257852867245674,0.6236982941627502,0.7815960049629211,0.0024999999441206455,0.0,0.0,0.0,0.0024999999441206455,0.0,0.0,0.0,0.0024999999441206455,0.0,0.0,0.0,0.019999999552965164,0.0,0.0,0.0,0.019999999552965164,0.0,0.0,0.0,0.019999999552965164,0.15682020783424377,-0.015562310814857483,9.660005569458008,0.03999999910593033,0.0,0.0,0.0,0.03999999910593033,0.0,0.0,0.0,0.03999999910593033
1779682951230091891,883375,1779682951211909893,imu_link,0.005593608599156141,-0.008257852867245674,0.6236982941627502,0.7815960049629211,0.0024999999441206455,0.0,0.0,0.0,0.0024999999441206455,0.0,0.0,0.0,0.0024999999441206455,0.0,0.0,0.0,0.019999999552965164,0.0,0.0,0.0,0.019999999552965164,0.0,0.0,0.0,0.019999999552965164,0.15682020783424377,-0.015562310814857483,9.660005569458008,0.03999999910593033,0.0,0.0,0.0,0.03999999910593033,0.0,0.0,0.0,0.03999999910593033
1779682951235903391,883376,1779682951216909893,imu_link,0.0054863556288182735,-0.007519146427512169,0.6236997246742249,0.7816030383110046,0.0024999999441206455,0.0,0.0,0.0,0.0024999999441206455,0.0,0.0,0.0,0.0024999999441206455,0.0,0.0,0.0,0.019999999552965164,0.0,0.0,0.0,0.019999999552965164,0.0,0.0,0.0,0.019999999552965164,0.16519992053508759,0.0005985504249110818,9.648633003234863,0.03999999910593033,0.0,0.0,0.0,0.03999999910593033,0.0,0.0,0.0,0.03999999910593033
1779682951260292559,883377,1779682951225909893,imu_link,0.006634817458689213,-0.007317121606320143,0.6236886978149414,0.7816048860549927,0.0024999999441206455,0.0,0.0,0.0,0.0024999999441206455,0.0,0.0,0.0,0.0024999999441206455,0.0,0.0,0.0,0.019999999552965164,0.0,0.0,0.0,0.019999999552965164,0.0,0.0,0.0,0.019999999552965164,0.19033902883529663,0.011372458189725876,9.671377182006836,0.03999999910593033,0.0,0.0,0.0,0.03999999910593033,0.0,0.0,0.0,0.03999999910593033
1779682951267871525,883378,1779682951230909893,imu_link,0.006634817458689213,-0.007317121606320143,0.6236886978149414,0.7816048860549927,0.0024999999441206455,0.0,0.0,0.0,0.0024999999441206455,0.0,0.0,0.0,0.0024999999441206455,0.0,0.0,0.0,0.019999999552965164,0.0,0.0,0.0,0.019999999552965164,0.0,0.0,0.0,0.019999999552965164,0.19033902883529663,0.011372458189725876,9.671377182006836,0.03999999910593033,0.0,0.0,0.0,0.03999999910593033,0.0,0.0,0.0,0.03999999910593033
1779682951292135033,883379,1779682951273909893,imu_link,0.008399426005780697,-0.0032689243089407682,0.6236627101898193,0.7816360592842102,0.0024999999441206455,0.0,0.0,0.0,0.0024999999441206455,0.0,0.0,0.0,0.0024999999441206455,0.0,0.0,0.0,0.019999999552965164,0.0,0.0,0.0,0.019999999552965164,0.0,0.0,0.0,0.019999999552965164,0.181959331035614,0.025737667456269264,9.597755432128906,0.03999999910593033,0.0,0.0,0.0,0.03999999910593033,0.0,0.0,0.0,0.03999999910593033
1779682951300121358,883380,1779682951276909893,imu_link,0.00792378094047308,-0.0037624984979629517,0.6236684918403625,0.7816341519355774,0.0024999999441206455,0.0,0.0,0.0,0.0024999999441206455,0.0,0.0,0.0,0.0024999999441206455,0.0,0.0,0.0,0.019999999552965164,0.0,0.0,0.0,0.019999999552965164,0.0,0.0,0.0,0.019999999552965164,0.16160860657691956,0.008379706181585789,9.698312759399414,0.03999999910593033,0.0,0.0,0.0,0.03999999910593033,0.0,0.0,0.0,0.03999999910593033
1779682951305885725,883381,1779682951281909893,imu_link,0.00792378094047308,-0.0037624984979629517,0.6236684918403625,0.7816341519355774,0.0024999999441206455,0.0,0.0,0.0,0.0024999999441206455,0.0,0.0,0.0,0.0024999999441206455,0.0,0.0,0.0,0.019999999552965164,0.0,0.0,0.0,0.019999999552965164,0.0,0.0,0.0,0.019999999552965164,0.16160860657691956,0.008379706181585789,9.698312759399414,0.03999999910593033,0.0,0.0,0.0,0.03999999910593033,0.0,0.0,0.0,0.03999999910593033
1779682951311342541,883382,1779682951286909893,imu_link,0.007226896472275257,-0.0040211146697402,0.6236748099327087,0.7816345691680908,0.0024999999441206455,0.0,0.0,0.0,0.0024999999441206455,0.0,0.0,0.0,0.0024999999441206455,0.0,0.0,0.0,0.019999999552965164,0.0,0.0,0.0,0.019999999552965164,0.0,0.0,0.0,0.019999999552965164,0.1346738487482071,0.023942016065120697,9.5809965133667,0.03999999910593033,0.0,0.0,0.0,0.03999999910593033,0.0,0.0,0.0,0.03999999910593033
1779682951317454582,883383,1779682951291909893,imu_link,0.006806252058595419,-0.004632330033928156,0.6236798763275146,0.7816311120986938,0.0024999999441206455,0.0,0.0,0.0,0.0024999999441206455,0.0,0.0,0.0,0.0024999999441206455,0.0,0.0,0.0,0.019999999552965164,0.0,0.0,0.0,0.019999999552965164,0.0,0.0,0.0,0.019999999552965164,0.166995570063591,-0.0035913025494664907,9.640851974487305,0.03999999910593033,0.0,0.0,0.0,0.03999999910593033,0.0,0.0,0.0,0.03999999910593033
1779682951323511256,883384,1779682951296909893,imu_link,0.006806252058595419,-0.004632330033928156,0.6236798763275146,0.7816311120986938,0.0024999999441206455,0.0,0.0,0.0,0.0024999999441206455,0.0,0.0,0.0,0.0024999999441206455,0.0,0.0,0.0,0.019999999552965164,0.0,0.0,0.0,0.019999999552965164,0.0,0.0,0.0,0.019999999552965164,0.166995570063591,-0.0035913025494664907,9.640851974487305,0.03999999910593033,0.0,0.0,0.0,0.03999999910593033,0.0,0.0,0.0,0.03999999910593033
1779682951329396943,883385,1779682951301909893,imu_link,0.006712983828037977,-0.005372823681682348,0.6236822009086609,0.7816252112388611,0.0024999999441206455,0.0,0.0,0.0,0.0024999999441206455,0.0,0.0,0.0,0.0024999999441206455,0.0,0.0,0.0,0.019999999552965164,0.0,0.0,0.0,0.019999999552965164,0.0,0.0,0.0,0.019999999552965164,0.193331778049469,0.0035913025494664907,9.616311073303223,0.03999999910593033,0.0,0.0,0.0,0.03999999910593033,0.0,0.0,0.0,0.03999999910593033
1779682951354314669,883386,1779682951310909893,imu_link,0.005794319324195385,-0.006089828442782164,0.6236908435821533,0.781620442867279,0.0024999999441206455,0.0,0.0,0.0,0.0024999999441206455,0.0,0.0,0.0,0.0024999999441206455,0.0,0.0,0.0,0.019999999552965164,0.0,0.0,0.0,0.019999999552965164,0.0,0.0,0.0,0.019999999552965164,0.16220715641975403,0.0077811554074287415,9.68813705444336,0.03999999910593033,0.0,0.0,0.0,0.03999999910593033,0.0,0.0,0.0,0.03999999910593033
1779682951379425217,883387,1779682951360909893,imu_link,0.001178913633339107,-0.006213980261236429,0.6237229108810425,0.7816144227981567,0.0024999999441206455,0.0,0.0,0.0,0.0024999999441206455,0.0,0.0,0.0,0.0024999999441206455,0.0,0.0,0.0,0.019999999552965164,0.0,0.0,0.0,0.019999999552965164,0.0,0.0,0.0,0.019999999552965164,0.152031809091568,0.0017956512747332454,9.630077362060547,0.03999999910593033,0.0,0.0,0.0,0.03999999910593033,0.0,0.0,0.0,0.03999999910593033
1779682951385698720,883388,1779682951363909893,imu_link,0.0018610222032293677,-0.006293913349509239,0.6237186789512634,0.7816157341003418,0.0024999999441206455,0.0,0.0,0.0,0.0024999999441206455,0.0,0.0,0.0,0.0024999999441206455,0.0,0.0,0.0,0.019999999552965164,0.0,0.0,0.0,0.019999999552965164,0.0,0.0,0.0,0.019999999552965164,0.19153612852096558,0.025737667456269264,9.652223587036133,0.03999999910593033,0.0,0.0,0.0,0.03999999910593033,0.0,0.0,0.0,0.03999999910593033
1779682951392252318,883389,1779682951368909893,imu_link,0.0018610222032293677,-0.006293913349509239,0.6237186789512634,0.7816157341003418,0.0024999999441206455,0.0,0.0,0.0,0.0024999999441206455,0.0,0.0,0.0,0.0024999999441206455,0.0,0.0,0.0,0.019999999552965164,0.0,0.0,0.0,0.019999999552965164,0.0,0.0,0.0,0.019999999552965164,0.19153612852096558,0.025737667456269264,9.652223587036133,0.03999999910593033,0.0,0.0,0.0,0.03999999910593033,0.0,0.0,0.0,0.03999999910593033
1779682951398463298,883390,1779682951373909893,imu_link,0.0025905356742441654,-0.006436231080442667,0.6237137317657471,0.7816164493560791,0.0024999999441206455,0.0,0.0,0.0,0.0024999999441206455,0.0,0.0,0.0,0.0024999999441206455,0.0,0.0,0.0,0.019999999552965164,0.0,0.0,0.0,0.019999999552965164,0.0,0.0,0.0,0.019999999552965164,0.17657236754894257,0.0035913025494664907,9.588178634643555,0.03999999910593033,0.0,0.0,0.0,0.03999999910593033,0.0,0.0,0.0,0.03999999910593033
1779682951403949215,883391,1779682951378909893,imu_link,0.003329809755086899,-0.006372999399900436,0.6237087845802307,0.7816181778907776,0.0024999999441206455,0.0,0.0,0.0,0.0024999999441206455,0.0,0.0,0.0,0.0024999999441206455,0.0,0.0,0.0,0.019999999552965164,0.0,0.0,0.0,0.019999999552965164,0.0,0.0,0.0,0.019999999552965164,0.17298106849193573,0.02992752008140087,9.594762802124023,0.03999999910593033,0.0,0.0,0.0,0.03999999910593033,0.0,0.0,0.0,0.03999999910593033
1779682951410377040,883392,1779682951383909893,imu_link,0.003329809755086899,-0.006372999399900436,0.6237087845802307,0.7816181778907776,0.0024999999441206455,0.0,0.0,0.0,0.0024999999441206455,0.0,0.0,0.0,0.0024999999441206455,0.0,0.0,0.0,0.019999999552965164,0.0,0.0,0.0,0.019999999552965164,0.0,0.0,0.0,0.019999999552965164,0.17298106849193573,0.02992752008140087,9.594762802124023,0.03999999910593033,0.0,0.0,0.0,0.03999999910593033,0.0,0.0,0.0,0.03999999910593033
1779682951416250454,883393,1779682951388909893,imu_link,0.004075141157954931,-0.006342411041259766,0.6237033605575562,0.7816192507743835,0.0024999999441206455,0.0,0.0,0.0,0.0024999999441206455,0.0,0.0,0.0,0.0024999999441206455,0.0,0.0,0.0,0.019999999552965164,0.0,0.0,0.0,0.019999999552965164,0.0,0.0,0.0,0.019999999552965164,0.17178396880626678,0.02214636467397213,9.643844604492188,0.03999999910593033,0.0,0.0,0.0,0.03999999910593033,0.0,0.0,0.0,0.03999999910593033
1779682951441200072,883394,1779682951397909893,imu_link,0.005209038034081459,-0.006073532160371542,0.623694658279419,0.7816216349601746,0.0024999999441206455,0.0,0.0,0.0,0.0024999999441206455,0.0,0.0,0.0,0.0024999999441206455,0.0,0.0,0.0,0.019999999552965164,0.0,0.0,0.0,0.019999999552965164,0.0,0.0,0.0,0.019999999552965164,0.16400282084941864,0.026336219161748886,9.638457298278809,0.03999999910593033,0.0,0.0,0.0,0.03999999910593033,0.0,0.0,0.0,0.03999999910593033
1779682951464927692,883395,1779682951450909893,imu_link,0.005163036286830902,-0.0011576677206903696,0.6236860752105713,0.7816514372825623,0.0024999999441206455,0.0,0.0,0.0,0.0024999999441206455,0.0,0.0,0.0,0.0024999999441206455,0.0,0.0,0.0,0.019999999552965164,0.0,0.0,0.0,0.019999999552965164,0.0,0.0,0.0,0.019999999552965164,0.1412578970193863,0.015562310814857483,9.638457298278809,0.03999999910593033,0.0,0.0,0.0,0.03999999910593033,0.0,0.0,0.0,0.03999999910593033
1779682951471144759,883396,1779682951453909893,imu_link,0.005239097401499748,-0.001838918775320053,0.6236879229545593,0.7816482782363892,0.0024999999441206455,0.0,0.0,0.0,0.0024999999441206455,0.0,0.0,0.0,0.0024999999441206455,0.0,0.0,0.0,0.019999999552965164,0.0,0.0,0.0,0.019999999552965164,0.0,0.0,0.0,0.019999999552965164,0.16759411990642548,0.008379706181585789,9.637858390808105,0.03999999910593033,0.0,0.0,0.0,0.03999999910593033,0.0,0.0,0.0,0.03999999910593033
1779682951476557597,883397,1779682951458909893,imu_link,0.005239097401499748,-0.001838918775320053,0.6236879229545593,0.7816482782363892,0.0024999999441206455,0.0,0.0,0.0,0.0024999999441206455,0.0,0.0,0.0,0.0024999999441206455,0.0,0.0,0.0,0.019999999552965164,0.0,0.0,0.0,0.019999999552965164,0.0,0.0,0.0,0.019999999552965164,0.16759411990642548,0.008379706181585789,9.637858390808105,0.03999999910593033,0.0,0.0,0.0,0.03999999910593033,0.0,0.0,0.0,0.03999999910593033
1779682951482529662,883398,1779682951463909893,imu_link,0.0050404854118824005,-0.0025572520680725574,0.6236907839775085,0.7816451787948608,0.0024999999441206455,0.0,0.0,0.0,0.0024999999441206455,0.0,0.0,0.0,0.0024999999441206455,0.0,0.0,0.0,0.019999999552965164,0.0,0.0,0.0,0.019999999552965164,0.0,0.0,0.0,0.019999999552965164,0.14844051003456116,-0.02214636467397213,9.67077922821045,0.03999999910593033,0.0,0.0,0.0,0.03999999910593033,0.0,0.0,0.0,0.03999999910593033
1779682951488234136,883399,1779682951468909893,imu_link,0.005123138427734375,-0.0032935969065874815,0.6236919164657593,0.7816410660743713,0.0024999999441206455,0.0,0.0,0.0,0.0024999999441206455,0.0,0.0,0.0,0.0024999999441206455,0.0,0.0,0.0,0.019999999552965164,0.0,0.0,0.0,0.019999999552965164,0.0,0.0,0.0,0.019999999552965164,0.15442600846290588,0.010175356641411781,9.616909980773926,0.03999999910593033,0.0,0.0,0.0,0.03999999910593033,0.0,0.0,0.0,0.03999999910593033
1779682951496642471,883400,1779682951473909893,imu_link,0.005123138427734375,-0.0032935969065874815,0.6236919164657593,0.7816410660743713,0.0024999999441206455,0.0,0.0,0.0,0.0024999999441206455,0.0,0.0,0.0,0.0024999999441206455,0.0,0.0,0.0,0.019999999552965164,0.0,0.0,0.0,0.019999999552965164,0.0,0.0,0.0,0.019999999552965164,0.15442600846290588,0.010175356641411781,9.616909980773926,0.03999999910593033,0.0,0.0,0.0,0.03999999910593033,0.0,0.0,0.0,0.03999999910593033
1779682951501027472,883401,1779682951478909893,imu_link,0.005185870453715324,-0.004036311991512775,0.6236928105354309,0.7816364169120789,0.0024999999441206455,0.0,0.0,0.0,0.0024999999441206455,0.0,0.0,0.0,0.0024999999441206455,0.0,0.0,0.0,0.019999999552965164,0.0,0.0,0.0,0.019999999552965164,0.0,0.0,0.0,0.019999999552965164,0.15682020783424377,0.0071826050989329815,9.643245697021484,0.03999999910593033,0.0,0.0,0.0,0.03999999910593033,0.0,0.0,0.0,0.03999999910593033
1779682951525972697,883402,1779682951487909893,imu_link,0.005077457055449486,-0.005198092199862003,0.623694896697998,0.7816286683082581,0.0024999999441206455,0.0,0.0,0.0,0.0024999999441206455,0.0,0.0,0.0,0.0024999999441206455,0.0,0.0,0.0,0.019999999552965164,0.0,0.0,0.0,0.019999999552965164,0.0,0.0,0.0,0.019999999552965164,0.166995570063591,-0.012569558806717396,9.639056205749512,0.03999999910593033,0.0,0.0,0.0,0.03999999910593033,0.0,0.0,0.0,0.03999999910593033
1779682951532745490,883403,1779682951492909893,imu_link,0.005077457055449486,-0.005198092199862003,0.623694896697998,0.7816286683082581,0.0024999999441206455,0.0,0.0,0.0,0.0024999999441206455,0.0,0.0,0.0,0.0024999999441206455,0.0,0.0,0.0,0.019999999552965164,0.0,0.0,0.0,0.019999999552965164,0.0,0.0,0.0,0.019999999552965164,0.166995570063591,-0.012569558806717396,9.639056205749512,0.03999999910593033,0.0,0.0,0.0,0.03999999910593033,0.0,0.0,0.0,0.03999999910593033
1779682951556374817,883404,1779682951540909893,imu_link,0.006427258253097534,-0.009924334473907948,0.6236810088157654,0.7815840244293213,0.0024999999441206455,0.0,0.0,0.0,0.0024999999441206455,0.0,0.0,0.0,0.0024999999441206455,0.0,0.0,0.0,0.019999999552965164,0.0,0.0,0.0,0.019999999552965164,0.0,0.0,0.0,0.019999999552965164,0.1538274586200714,0.0077811554074287415,9.611522674560547,0.03999999910593033,0.0,0.0,0.0,0.03999999910593033,0.0,0.0,0.0,0.03999999910593033
1779682951562556430,883405,1779682951543909893,imu_link,0.006196644157171249,-0.009278489276766777,0.623684287071228,0.7815911173820496,0.0024999999441206455,0.0,0.0,0.0,0.0024999999441206455,0.0,0.0,0.0,0.0024999999441206455,0.0,0.0,0.0,0.019999999552965164,0.0,0.0,0.0,0.019999999552965164,0.0,0.0,0.0,0.019999999552965164,0.1215057373046875,0.013766659423708916,9.657610893249512,0.03999999910593033,0.0,0.0,0.0,0.03999999910593033,0.0,0.0,0.0,0.03999999910593033
1779682951569622904,883406,1779682951548909893,imu_link,0.006196644157171249,-0.009278489276766777,0.623684287071228,0.7815911173820496,0.0024999999441206455,0.0,0.0,0.0,0.0024999999441206455,0.0,0.0,0.0,0.0024999999441206455,0.0,0.0,0.0,0.019999999552965164,0.0,0.0,0.0,0.019999999552965164,0.0,0.0,0.0,0.019999999552965164,0.1215057373046875,0.013766659423708916,9.657610893249512,0.03999999910593033,0.0,0.0,0.0,0.03999999910593033,0.0,0.0,0.0,0.03999999910593033
1779682951574649782,883407,1779682951553909893,imu_link,0.006055757869035006,-0.008546311408281326,0.6236863732337952,0.7815989851951599,0.0024999999441206455,0.0,0.0,0.0,0.0024999999441206455,0.0,0.0,0.0,0.0024999999441206455,0.0,0.0,0.0,0.019999999552965164,0.0,0.0,0.0,0.019999999552965164,0.0,0.0,0.0,0.019999999552965164,0.15322890877723694,0.013766659423708916,9.626486778259277,0.03999999910593033,0.0,0.0,0.0,0.03999999910593033,0.0,0.0,0.0,0.03999999910593033
1779682951579327602,883408,1779682951558909893,imu_link,0.005670943763107061,-0.007913172245025635,0.6236905455589294,0.7816051244735718,0.0024999999441206455,0.0,0.0,0.0,0.0024999999441206455,0.0,0.0,0.0,0.0024999999441206455,0.0,0.0,0.0,0.019999999552965164,0.0,0.0,0.0,0.019999999552965164,0.0,0.0,0.0,0.019999999552965164,0.1538274586200714,-0.005386953707784414,9.642048835754395,0.03999999910593033,0.0,0.0,0.0,0.03999999910593033,0.0,0.0,0.0,0.03999999910593033
1779682951588243563,883409,1779682951563909893,imu_link,0.005670943763107061,-0.007913172245025635,0.6236905455589294,0.7816051244735718,0.0024999999441206455,0.0,0.0,0.0,0.0024999999441206455,0.0,0.0,0.0,0.0024999999441206455,0.0,0.0,0.0,0.019999999552965164,0.0,0.0,0.0,0.019999999552965164,0.0,0.0,0.0,0.019999999552965164,0.1538274586200714,-0.005386953707784414,9.642048835754395,0.03999999910593033,0.0,0.0,0.0,0.03999999910593033,0.0,0.0,0.0,0.03999999910593033
1779682951594447678,883410,1779682951568909893,imu_link,0.00595107302069664,-0.007221839390695095,0.6236880421638489,0.7816117405891418,0.0024999999441206455,0.0,0.0,0.0,0.0024999999441206455,0.0,0.0,0.0,0.0024999999441206455,0.0,0.0,0.0,0.019999999552965164,0.0,0.0,0.0,0.019999999552965164,0.0,0.0,0.0,0.019999999552965164,0.16639702022075653,0.02693476900458336,9.615114212036133,0.03999999910593033,0.0,0.0,0.0,0.03999999910593033,0.0,0.0,0.0,0.03999999910593033
1779682951638425146,883411,1779682951625909893,imu_link,0.000517015578225255,-0.008489235304296017,0.623729407787323,0.7815885543823242,0.0024999999441206455,0.0,0.0,0.0,0.0024999999441206455,0.0,0.0,0.0,0.0024999999441206455,0.0,0.0,0.0,0.019999999552965164,0.0,0.0,0.0,0.019999999552965164,0.0,0.0,0.0,0.019999999552965164,0.17298106849193573,-0.013168109580874443,9.649829864501953,0.03999999910593033,0.0,0.0,0.0,0.03999999910593033,0.0,0.0,0.0,0.03999999910593033
1779682951644792819,883412,1779682951651974361,imu_link,0.0011789655545726418,-0.00830626767128706,0.6237255930900574,0.7815929651260376,0.0024999999441206455,0.0,0.0,0.0,0.0024999999441206455,0.0,0.0,0.0,0.0024999999441206455,0.0,0.0,0.0,0.019999999552965164,0.0,0.0,0.0,0.019999999552965164,0.0,0.0,0.0,0.019999999552965164,0.17896656692028046,0.010175356641411781,9.648633003234863,0.03999999910593033,0.0,0.0,0.0,0.03999999910593033,0.0,0.0,0.0,0.03999999910593033
1779682951649338230,883413,1779682951656974361,imu_link,0.0011789655545726418,-0.00830626767128706,0.6237255930900574,0.7815929651260376,0.0024999999441206455,0.0,0.0,0.0,0.0024999999441206455,0.0,0.0,0.0,0.0024999999441206455,0.0,0.0,0.0,0.019999999552965164,0.0,0.0,0.0,0.019999999552965164,0.0,0.0,0.0,0.019999999552965164,0.17896656692028046,0.010175356641411781,9.648633003234863,0.03999999910593033,0.0,0.0,0.0,0.03999999910593033,0.0,0.0,0.0,0.03999999910593033
1779682951655365353,883414,1779682951661974361,imu_link,0.001805048668757081,-0.007899424992501736,0.6237225532531738,0.7815982699394226,0.0024999999441206455,0.0,0.0,0.0,0.0024999999441206455,0.0,0.0,0.0,0.0024999999441206455,0.0,0.0,0.0,0.019999999552965164,0.0,0.0,0.0,0.019999999552965164,0.0,0.0,0.0,0.019999999552965164,0.1496376097202301,0.021547814831137657,9.650428771972656,0.03999999910593033,0.0,0.0,0.0,0.03999999910593033,0.0,0.0,0.0,0.03999999910593033
1779682951661365614,883415,1779682951666974361,imu_link,0.0024799031671136618,-0.0075929779559373856,0.6237186193466187,0.7816027998924255,0.0024999999441206455,0.0,0.0,0.0,0.0024999999441206455,0.0,0.0,0.0,0.0024999999441206455,0.0,0.0,0.0,0.019999999552965164,0.0,0.0,0.0,0.019999999552965164,0.0,0.0,0.0,0.019999999552965164,0.16101005673408508,0.008978256024420261,9.692925453186035,0.03999999910593033,0.0,0.0,0.0,0.03999999910593033,0.0,0.0,0.0,0.03999999910593033
1779682951667867856,883416,1779682951671974361,imu_link,0.0024799031671136618,-0.0075929779559373856,0.6237186193466187,0.7816027998924255,0.0024999999441206455,0.0,0.0,0.0,0.0024999999441206455,0.0,0.0,0.0,0.0024999999441206455,0.0,0.0,0.0,0.019999999552965164,0.0,0.0,0.0,0.019999999552965164,0.0,0.0,0.0,0.019999999552965164,0.16101005673408508,0.008978256024420261,9.692925453186035,0.03999999910593033,0.0,0.0,0.0,0.03999999910593033,0.0,0.0,0.0,0.03999999910593033
1779682951672259382,883417,1779682951676974361,imu_link,0.003209882415831089,-0.007435977458953857,0.6237133741378784,0.7816057205200195,0.0024999999441206455,0.0,0.0,0.0,0.0024999999441206455,0.0,0.0,0.0,0.0024999999441206455,0.0,0.0,0.0,0.019999999552965164,0.0,0.0,0.0,0.019999999552965164,0.0,0.0,0.0,0.019999999552965164,0.16998831927776337,-0.002992752008140087,9.661202430725098,0.03999999910593033,0.0,0.0,0.0,0.03999999910593033,0.0,0.0,0.0,0.03999999910593033
1779682951697321897,883418,1779682951685974361,imu_link,0.004366836044937372,-0.007291510235518217,0.623704195022583,0.7816087007522583,0.0024999999441206455,0.0,0.0,0.0,0.0024999999441206455,0.0,0.0,0.0,0.0024999999441206455,0.0,0.0,0.0,0.019999999552965164,0.0,0.0,0.0,0.019999999552965164,0.0,0.0,0.0,0.019999999552965164,0.17657236754894257,0.0017956512747332454,9.621698379516602,0.03999999910593033,0.0,0.0,0.0,0.03999999910593033,0.0,0.0,0.0,0.03999999910593033
1779682951703050861,883419,1779682951690974361,imu_link,0.004366836044937372,-0.007291510235518217,0.623704195022583,0.7816087007522583,0.0024999999441206455,0.0,0.0,0.0,0.0024999999441206455,0.0,0.0,0.0,0.0024999999441206455,0.0,0.0,0.0,0.019999999552965164,0.0,0.0,0.0,0.019999999552965164,0.0,0.0,0.0,0.019999999552965164,0.17657236754894257,0.0017956512747332454,9.621698379516602,0.03999999910593033,0.0,0.0,0.0,0.03999999910593033,0.0,0.0,0.0,0.03999999910593033
1779682951726887533,883420,1779682951738974361,imu_link,0.008228721097111702,-0.004253047052770853,0.6236676573753357,0.7816293239593506,0.0024999999441206455,0.0,0.0,0.0,0.0024999999441206455,0.0,0.0,0.0,0.0024999999441206455,0.0,0.0,0.0,0.019999999552965164,0.0,0.0,0.0,0.019999999552965164,0.0,0.0,0.0,0.019999999552965164,0.16220715641975403,0.0017956512747332454,9.618106842041016,0.03999999910593033,0.0,0.0,0.0,0.03999999910593033,0.0,0.0,0.0,0.03999999910593033
1779682951733063689,883421,1779682951741974361,imu_link,0.007593963295221329,-0.004513793159276247,0.6236737370491028,0.781629204750061,0.0024999999441206455,0.0,0.0,0.0,0.0024999999441206455,0.0,0.0,0.0,0.0024999999441206455,0.0,0.0,0.0,0.019999999552965164,0.0,0.0,0.0,0.019999999552965164,0.0,0.0,0.0,0.019999999552965164,0.14604629576206207,0.014963760040700436,9.631275177001953,0.03999999910593033,0.0,0.0,0.0,0.03999999910593033,0.0,0.0,0.0,0.03999999910593033
1779682951739283907,883422,1779682951746974361,imu_link,0.007593963295221329,-0.004513793159276247,0.6236737370491028,0.781629204750061,0.0024999999441206455,0.0,0.0,0.0,0.0024999999441206455,0.0,0.0,0.0,0.0024999999441206455,0.0,0.0,0.0,0.019999999552965164,0.0,0.0,0.0,0.019999999552965164,0.0,0.0,0.0,0.019999999552965164,0.14604629576206207,0.014963760040700436,9.631275177001953,0.03999999910593033,0.0,0.0,0.0,0.03999999910593033,0.0,0.0,0.0,0.03999999910593033
1779682951744861505,883423,1779682951751974361,imu_link,0.006978409830480814,-0.0049333730712533,0.623680055141449,0.7816275954246521,0.0024999999441206455,0.0,0.0,0.0,0.0024999999441206455,0.0,0.0,0.0,0.0024999999441206455,0.0,0.0,0.0,0.019999999552965164,0.0,0.0,0.0,0.019999999552965164,0.0,0.0,0.0,0.019999999552965164,0.1562216579914093,0.013766659423708916,9.662399291992188,0.03999999910593033,0.0,0.0,0.0,0.03999999910593033,0.0,0.0,0.0,0.03999999910593033
1779682951750556111,883424,1779682951756974361,imu_link,0.00629410007968545,-0.0052185351960361,0.6236860752105713,0.7816265821456909,0.0024999999441206455,0.0,0.0,0.0,0.0024999999441206455,0.0,0.0,0.0,0.0024999999441206455,0.0,0.0,0.0,0.019999999552965164,0.0,0.0,0.0,0.019999999552965164,0.0,0.0,0.0,0.019999999552965164,0.15083470940589905,0.020949264988303185,9.618704795837402,0.03999999910593033,0.0,0.0,0.0,0.03999999910593033,0.0,0.0,0.0,0.03999999910593033
1779682951756034302,883425,1779682951761974361,imu_link,0.00629410007968545,-0.0052185351960361,0.6236860752105713,0.7816265821456909,0.0024999999441206455,0.0,0.0,0.0,0.0024999999441206455,0.0,0.0,0.0,0.0024999999441206455,0.0,0.0,0.0,0.019999999552965164,0.0,0.0,0.0,0.019999999552965164,0.0,0.0,0.0,0.019999999552965164,0.15083470940589905,0.020949264988303185,9.618704795837402,0.03999999910593033,0.0,0.0,0.0,0.03999999910593033,0.0,0.0,0.0,0.03999999910593033
1779682951761831491,883426,1779682951766974361,imu_link,0.006295949686318636,-0.005965260323137045,0.6236871480941772,0.781620442867279,0.0024999999441206455,0.0,0.0,0.0,0.0024999999441206455,0.0,0.0,0.0,0.0024999999441206455,0.0,0.0,0.0,0.019999999552965164,0.0,0.0,0.0,0.019999999552965164,0.0,0.0,0.0,0.019999999552965164,0.18136078119277954,0.010175356641411781,9.609726905822754,0.03999999910593033,0.0,0.0,0.0,0.03999999910593033,0.0,0.0,0.0,0.03999999910593033
1779682951784883501,883427,1779682951775974361,imu_link,0.00512869656085968,-0.005933833308517933,0.6236967444419861,0.7816215753555298,0.0024999999441206455,0.0,0.0,0.0,0.0024999999441206455,0.0,0.0,0.0,0.0024999999441206455,0.0,0.0,0.0,0.019999999552965164,0.0,0.0,0.0,0.019999999552965164,0.0,0.0,0.0,0.019999999552965164,0.15083470940589905,0.005386953707784414,9.652223587036133,0.03999999910593033,0.0,0.0,0.0,0.03999999910593033,0.0,0.0,0.0,0.03999999910593033
1779682951809481003,883428,1779682951819974361,imu_link,0.00910079013556242,-0.00537344254553318,0.6236605048179626,0.7816184759140015,0.0024999999441206455,0.0,0.0,0.0,0.0024999999441206455,0.0,0.0,0.0,0.0024999999441206455,0.0,0.0,0.0,0.019999999552965164,0.0,0.0,0.0,0.019999999552965164,0.0,0.0,0.0,0.019999999552965164,0.16101005673408508,0.023343466222286224,9.615114212036133,0.03999999910593033,0.0,0.0,0.0,0.03999999910593033,0.0,0.0,0.0,0.03999999910593033
1779682951815438172,883429,1779682951822974361,imu_link,0.008442369289696217,-0.005561304744333029,0.6236675381660461,0.7816188931465149,0.0024999999441206455,0.0,0.0,0.0,0.0024999999441206455,0.0,0.0,0.0,0.0024999999441206455,0.0,0.0,0.0,0.019999999552965164,0.0,0.0,0.0,0.019999999552965164,0.0,0.0,0.0,0.019999999552965164,0.16998831927776337,0.02274491637945175,9.660603523254395,0.03999999910593033,0.0,0.0,0.0,0.03999999910593033,0.0,0.0,0.0,0.03999999910593033
1779682951821216800,883430,1779682951827974361,imu_link,0.008442369289696217,-0.005561304744333029,0.6236675381660461,0.7816188931465149,0.0024999999441206455,0.0,0.0,0.0,0.0024999999441206455,0.0,0.0,0.0,0.0024999999441206455,0.0,0.0,0.0,0.019999999552965164,0.0,0.0,0.0,0.019999999552965164,0.0,0.0,0.0,0.019999999552965164,0.16998831927776337,0.02274491637945175,9.660603523254395,0.03999999910593033,0.0,0.0,0.0,0.03999999910593033,0.0,0.0,0.0,0.03999999910593033
1779682951826460836,883431,1779682951832974361,imu_link,0.007714719045907259,-0.005717353895306587,0.6236748099327087,0.7816194295883179,0.0024999999441206455,0.0,0.0,0.0,0.0024999999441206455,0.0,0.0,0.0,0.0024999999441206455,0.0,0.0,0.0,0.019999999552965164,0.0,0.0,0.0,0.019999999552965164,0.0,0.0,0.0,0.019999999552965164,0.15682020783424377,0.002992752008140087,9.643245697021484,0.03999999910593033,0.0,0.0,0.0,0.03999999910593033,0.0,0.0,0.0,0.03999999910593033
1779682951831907768,883432,1779682951837974361,imu_link,0.00702443765476346,-0.005990424659103155,0.6236817240715027,0.7816183567047119,0.0024999999441206455,0.0,0.0,0.0,0.0024999999441206455,0.0,0.0,0.0,0.0024999999441206455,0.0,0.0,0.0,0.019999999552965164,0.0,0.0,0.0,0.019999999552965164,0.0,0.0,0.0,0.019999999552965164,0.16519992053508759,0.0011971008498221636,9.66419506072998,0.03999999910593033,0.0,0.0,0.0,0.03999999910593033,0.0,0.0,0.0,0.03999999910593033
1779682951838058438,883433,1779682951842974361,imu_link,0.00702443765476346,-0.005990424659103155,0.6236817240715027,0.7816183567047119,0.0024999999441206455,0.0,0.0,0.0,0.0024999999441206455,0.0,0.0,0.0,0.0024999999441206455,0.0,0.0,0.0,0.019999999552965164,0.0,0.0,0.0,0.019999999552965164,0.0,0.0,0.0,0.019999999552965164,0.16519992053508759,0.0011971008498221636,9.66419506072998,0.03999999910593033,0.0,0.0,0.0,0.03999999910593033,0.0,0.0,0.0,0.03999999910593033
1779682951844257231,883434,1779682951847974361,imu_link,0.006289172451943159,-0.005882889498025179,0.6236879825592041,0.781620442867279,0.0024999999441206455,0.0,0.0,0.0,0.0024999999441206455,0.0,0.0,0.0,0.0024999999441206455,0.0,0.0,0.0,0.019999999552965164,0.0,0.0,0.0,0.019999999552965164,0.0,0.0,0.0,0.019999999552965164,0.16160860657691956,0.021547814831137657,9.637858390808105,0.03999999910593033,0.0,0.0,0.0,0.03999999910593033,0.0,0.0,0.0,0.03999999910593033
1779682951869275536,883435,1779682951856974361,imu_link,0.00549574987962842,-0.0067436471581459045,0.6236953735351562,0.7816135287284851,0.0024999999441206455,0.0,0.0,0.0,0.0024999999441206455,0.0,0.0,0.0,0.0024999999441206455,0.0,0.0,0.0,0.019999999552965164,0.0,0.0,0.0,0.019999999552965164,0.0,0.0,0.0,0.019999999552965164,0.16879121959209442,-0.005386953707784414,9.637858390808105,0.03999999910593033,0.0,0.0,0.0,0.03999999910593033,0.0,0.0,0.0,0.03999999910593033
1779682951874855478,883436,1779682951861974361,imu_link,0.00549574987962842,-0.0067436471581459045,0.6236953735351562,0.7816135287284851,0.0024999999441206455,0.0,0.0,0.0,0.0024999999441206455,0.0,0.0,0.0,0.0024999999441206455,0.0,0.0,0.0,0.019999999552965164,0.0,0.0,0.0,0.019999999552965164,0.0,0.0,0.0,0.019999999552965164,0.16879121959209442,-0.005386953707784414,9.637858390808105,0.03999999910593033,0.0,0.0,0.0,0.03999999910593033,0.0,0.0,0.0,0.03999999910593033
1779682951900348163,883437,1779682951904974361,imu_link,0.002305480418726802,-0.0036927771288901567,0.6237167716026306,0.7816327214241028,0.0024999999441206455,0.0,0.0,0.0,0.0024999999441206455,0.0,0.0,0.0,0.0024999999441206455,0.0,0.0,0.0,0.019999999552965164,0.0,0.0,0.0,0.019999999552965164,0.0,0.0,0.0,0.019999999552965164,0.15981295704841614,0.0005985504249110818,9.667187690734863,0.03999999910593033,0.0,0.0,0.0,0.03999999910593033,0.0,0.0,0.0,0.03999999910593033
1779682951906328755,883438,1779682951907974361,imu_link,0.00278228591196239,-0.004186349455267191,0.6237143278121948,0.7816306948661804,0.0024999999441206455,0.0,0.0,0.0,0.0024999999441206455,0.0,0.0,0.0,0.0024999999441206455,0.0,0.0,0.0,0.019999999552965164,0.0,0.0,0.0,0.019999999552965164,0.0,0.0,0.0,0.019999999552965164,0.15981295704841614,-0.002394201699644327,9.631275177001953,0.03999999910593033,0.0,0.0,0.0,0.03999999910593033,0.0,0.0,0.0,0.03999999910593033
1779682951912260619,883439,1779682951912974361,imu_link,0.00278228591196239,-0.004186349455267191,0.6237143278121948,0.7816306948661804,0.0024999999441206455,0.0,0.0,0.0,0.0024999999441206455,0.0,0.0,0.0,0.0024999999441206455,0.0,0.0,0.0,0.019999999552965164,0.0,0.0,0.0,0.019999999552965164,0.0,0.0,0.0,0.019999999552965164,0.15981295704841614,-0.002394201699644327,9.631275177001953,0.03999999910593033,0.0,0.0,0.0,0.03999999910593033,0.0,0.0,0.0,0.03999999910593033
1779682951917669172,883440,1779682951917974361,imu_link,0.003416505642235279,-0.004575424827635288,0.6237108111381531,0.7816288471221924,0.0024999999441206455,0.0,0.0,0.0,0.0024999999441206455,0.0,0.0,0.0,0.0024999999441206455,0.0,0.0,0.0,0.019999999552965164,0.0,0.0,0.0,0.019999999552965164,0.0,0.0,0.0,0.019999999552965164,0.13766659796237946,0.0065840547904372215,9.611522674560547,0.03999999910593033,0.0,0.0,0.0,0.03999999910593033,0.0,0.0,0.0,0.03999999910593033
1779682951923700174,883441,1779682951922974361,imu_link,0.003938345704227686,-0.005102538503706455,0.6237075924873352,0.7816257476806641,0.0024999999441206455,0.0,0.0,0.0,0.0024999999441206455,0.0,0.0,0.0,0.0024999999441206455,0.0,0.0,0.0,0.019999999552965164,0.0,0.0,0.0,0.019999999552965164,0.0,0.0,0.0,0.019999999552965164,0.1646013706922531,0.002394201699644327,9.592369079589844,0.03999999910593033,0.0,0.0,0.0,0.03999999910593033,0.0,0.0,0.0,0.03999999910593033
1779682951930539099,883442,1779682951927974361,imu_link,0.003938345704227686,-0.005102538503706455,0.6237075924873352,0.7816257476806641,0.0024999999441206455,0.0,0.0,0.0,0.0024999999441206455,0.0,0.0,0.0,0.0024999999441206455,0.0,0.0,0.0,0.019999999552965164,0.0,0.0,0.0,0.019999999552965164,0.0,0.0,0.0,0.019999999552965164,0.1646013706922531,0.002394201699644327,9.592369079589844,0.03999999910593033,0.0,0.0,0.0,0.03999999910593033,0.0,0.0,0.0,0.03999999910593033
1779682951936289260,883443,1779682951932974361,imu_link,0.004457774106413126,-0.005634102039039135,0.6237039566040039,0.7816221117973328,0.0024999999441206455,0.0,0.0,0.0,0.0024999999441206455,0.0,0.0,0.0,0.0024999999441206455,0.0,0.0,0.0,0.019999999552965164,0.0,0.0,0.0,0.019999999552965164,0.0,0.0,0.0,0.019999999552965164,0.17956513166427612,0.0035913025494664907,9.618704795837402,0.03999999910593033,0.0,0.0,0.0,0.03999999910593033,0.0,0.0,0.0,0.03999999910593033
1779682951960996576,883444,1779682951941974361,imu_link,0.005524262320250273,-0.006115619093179703,0.6236959099769592,0.7816182374954224,0.0024999999441206455,0.0,0.0,0.0,0.0024999999441206455,0.0,0.0,0.0,0.0024999999441206455,0.0,0.0,0.0,0.019999999552965164,0.0,0.0,0.0,0.019999999552965164,0.0,0.0,0.0,0.019999999552965164,0.16220715641975403,0.011372458189725876,9.66419506072998,0.03999999910593033,0.0,0.0,0.0,0.03999999910593033,0.0,0.0,0.0,0.03999999910593033
1779682951985128288,883445,1779682951990974361,imu_link,0.009467077441513538,-0.008309610188007355,0.6236581802368164,0.7815901637077332,0.0024999999441206455,0.0,0.0,0.0,0.0024999999441206455,0.0,0.0,0.0,0.0024999999441206455,0.0,0.0,0.0,0.019999999552965164,0.0,0.0,0.0,0.019999999552965164,0.0,0.0,0.0,0.019999999552965164,0.16998831927776337,0.014365210197865963,9.642646789550781,0.03999999910593033,0.0,0.0,0.0,0.03999999910593033,0.0,0.0,0.0,0.03999999910593033
1779682951994839167,883446,1779682951993974361,imu_link,0.008790803141891956,-0.008188145235180855,0.6236661076545715,0.7815929651260376,0.0024999999441206455,0.0,0.0,0.0,0.0024999999441206455,0.0,0.0,0.0,0.0024999999441206455,0.0,0.0,0.0,0.019999999552965164,0.0,0.0,0.0,0.019999999552965164,0.0,0.0,0.0,0.019999999552965164,0.18315643072128296,-0.0065840547904372215,9.657610893249512,0.03999999910593033,0.0,0.0,0.0,0.03999999910593033,0.0,0.0,0.0,0.03999999910593033
1779682952000500335,883447,1779682951998974361,imu_link,0.008790803141891956,-0.008188145235180855,0.6236661076545715,0.7815929651260376,0.0024999999441206455,0.0,0.0,0.0,0.0024999999441206455,0.0,0.0,0.0,0.0024999999441206455,0.0,0.0,0.0,0.019999999552965164,0.0,0.0,0.0,0.019999999552965164,0.0,0.0,0.0,0.019999999552965164,0.18315643072128296,-0.0065840547904372215,9.657610893249512,0.03999999910593033,0.0,0.0,0.0,0.03999999910593033,0.0,0.0,0.0,0.03999999910593033
1779682952006105181,883448,1779682952003974361,imu_link,0.008183430880308151,-0.007758540101349354,0.6236724257469177,0.7815989851951599,0.0024999999441206455,0.0,0.0,0.0,0.0024999999441206455,0.0,0.0,0.0,0.0024999999441206455,0.0,0.0,0.0,0.019999999552965164,0.0,0.0,0.0,0.019999999552965164,0.0,0.0,0.0,0.019999999552965164,0.16519992053508759,0.015562310814857483,9.626486778259277,0.03999999910593033,0.0,0.0,0.0,0.03999999910593033,0.0,0.0,0.0,0.03999999910593033
1779682952011950620,883449,1779682952008974361,imu_link,0.007507970090955496,-0.007451675366610289,0.6236792802810669,0.781603217124939,0.0024999999441206455,0.0,0.0,0.0,0.0024999999441206455,0.0,0.0,0.0,0.0024999999441206455,0.0,0.0,0.0,0.019999999552965164,0.0,0.0,0.0,0.019999999552965164,0.0,0.0,0.0,0.019999999552965164,0.17657236754894257,0.010175356641411781,9.653421401977539,0.03999999910593033,0.0,0.0,0.0,0.03999999910593033,0.0,0.0,0.0,0.03999999910593033
1779682952017956572,883450,1779682952013974361,imu_link,0.007507970090955496,-0.007451675366610289,0.6236792802810669,0.781603217124939,0.0024999999441206455,0.0,0.0,0.0,0.0024999999441206455,0.0,0.0,0.0,0.0024999999441206455,0.0,0.0,0.0,0.019999999552965164,0.0,0.0,0.0,0.019999999552965164,0.0,0.0,0.0,0.019999999552965164,0.17657236754894257,0.010175356641411781,9.653421401977539,0.03999999910593033,0.0,0.0,0.0,0.03999999910593033,0.0,0.0,0.0,0.03999999910593033
1779682952024091103,883451,1779682952018974361,imu_link,0.006970586720854044,-0.006937701255083084,0.6236841678619385,0.781609058380127,0.0024999999441206455,0.0,0.0,0.0,0.0024999999441206455,0.0,0.0,0.0,0.0024999999441206455,0.0,0.0,0.0,0.019999999552965164,0.0,0.0,0.0,0.019999999552965164,0.0,0.0,0.0,0.019999999552965164,0.1346738487482071,0.014365210197865963,9.655815124511719,0.03999999910593033,0.0,0.0,0.0,0.03999999910593033,0.0,0.0,0.0,0.03999999910593033
1779682952048675488,883452,1779682952027974361,imu_link,0.006524840835481882,-0.0058553144335746765,0.6236869096755981,0.7816195487976074,0.0024999999441206455,0.0,0.0,0.0,0.0024999999441206455,0.0,0.0,0.0,0.0024999999441206455,0.0,0.0,0.0,0.019999999552965164,0.0,0.0,0.0,0.019999999552965164,0.0,0.0,0.0,0.019999999552965164,0.17058686912059784,0.02693476900458336,9.657011985778809,0.03999999910593033,0.0,0.0,0.0,0.03999999910593033,0.0,0.0,0.0,0.03999999910593033
1779682952074186873,883453,1779682952083974361,imu_link,0.003129873890429735,-0.009809019044041634,0.6237135529518127,0.7815797328948975,0.0024999999441206455,0.0,0.0,0.0,0.0024999999441206455,0.0,0.0,0.0,0.0024999999441206455,0.0,0.0,0.0,0.019999999552965164,0.0,0.0,0.0,0.019999999552965164,0.0,0.0,0.0,0.019999999552965164,0.17178396880626678,-0.002394201699644327,9.600749015808105,0.03999999910593033,0.0,0.0,0.0,0.03999999910593033,0.0,0.0,0.0,0.03999999910593033
1779682952080171837,883454,1779682952086974361,imu_link,0.003509199246764183,-0.009235739707946777,0.6237118244171143,0.7815864682197571,0.0024999999441206455,0.0,0.0,0.0,0.0024999999441206455,0.0,0.0,0.0,0.0024999999441206455,0.0,0.0,0.0,0.019999999552965164,0.0,0.0,0.0,0.019999999552965164,0.0,0.0,0.0,0.019999999552965164,0.15801730751991272,0.013168109580874443,9.621698379516602,0.03999999910593033,0.0,0.0,0.0,0.03999999910593033,0.0,0.0,0.0,0.03999999910593033
1779682952085244805,883455,1779682952091974361,imu_link,0.003509199246764183,-0.009235739707946777,0.6237118244171143,0.7815864682197571,0.0024999999441206455,0.0,0.0,0.0,0.0024999999441206455,0.0,0.0,0.0,0.0024999999441206455,0.0,0.0,0.0,0.019999999552965164,0.0,0.0,0.0,0.019999999552965164,0.0,0.0,0.0,0.019999999552965164,0.15801730751991272,0.013168109580874443,9.621698379516602,0.03999999910593033,0.0,0.0,0.0,0.03999999910593033,0.0,0.0,0.0,0.03999999910593033
1779682952091075109,883456,1779682952096974361,imu_link,0.003783948952332139,-0.008542289957404137,0.623711109161377,0.7815935611724854,0.0024999999441206455,0.0,0.0,0.0,0.0024999999441206455,0.0,0.0,0.0,0.0024999999441206455,0.0,0.0,0.0,0.019999999552965164,0.0,0.0,0.0,0.019999999552965164,0.0,0.0,0.0,0.019999999552965164,0.14604629576206207,0.002992752008140087,9.619303703308105,0.03999999910593033,0.0,0.0,0.0,0.03999999910593033,0.0,0.0,0.0,0.03999999910593033
1779682952099093582,883457,1779682952101974361,imu_link,0.004377694800496101,-0.008098182268440723,0.6237066388130188,0.7815988063812256,0.0024999999441206455,0.0,0.0,0.0,0.0024999999441206455,0.0,0.0,0.0,0.0024999999441206455,0.0,0.0,0.0,0.019999999552965164,0.0,0.0,0.0,0.019999999552965164,0.0,0.0,0.0,0.019999999552965164,0.17537526786327362,0.010773907415568829,9.604339599609375,0.03999999910593033,0.0,0.0,0.0,0.03999999910593033,0.0,0.0,0.0,0.03999999910593033
1779682952102636033,883458,1779682952106974361,imu_link,0.004377694800496101,-0.008098182268440723,0.6237066388130188,0.7815988063812256,0.0024999999441206455,0.0,0.0,0.0,0.0024999999441206455,0.0,0.0,0.0,0.0024999999441206455,0.0,0.0,0.0,0.019999999552965164,0.0,0.0,0.0,0.019999999552965164,0.0,0.0,0.0,0.019999999552965164,0.17537526786327362,0.010773907415568829,9.604339599609375,0.03999999910593033,0.0,0.0,0.0,0.03999999910593033,0.0,0.0,0.0,0.03999999910593033
1779682952108409523,883459,1779682952111974361,imu_link,0.00495944544672966,-0.00763300247490406,0.6237020492553711,0.7816038727760315,0.0024999999441206455,0.0,0.0,0.0,0.0024999999441206455,0.0,0.0,0.0,0.0024999999441206455,0.0,0.0,0.0,0.019999999552965164,0.0,0.0,0.0,0.019999999552965164,0.0,0.0,0.0,0.019999999552965164,0.17417816817760468,0.021547814831137657,9.613916397094727,0.03999999910593033,0.0,0.0,0.0,0.03999999910593033,0.0,0.0,0.0,0.03999999910593033
1779682952133496819,883460,1779682952120974361,imu_link,0.005436059553176165,-0.006566111464053392,0.6236981153488159,0.7816133499145508,0.0024999999441206455,0.0,0.0,0.0,0.0024999999441206455,0.0,0.0,0.0,0.0024999999441206455,0.0,0.0,0.0,0.019999999552965164,0.0,0.0,0.0,0.019999999552965164,0.0,0.0,0.0,0.019999999552965164,0.15023615956306458,0.02992752008140087,9.63067626953125,0.03999999910593033,0.0,0.0,0.0,0.03999999910593033,0.0,0.0,0.0,0.03999999910593033
1779682952141512132,883461,1779682952125974361,imu_link,0.005436059553176165,-0.006566111464053392,0.6236981153488159,0.7816133499145508,0.0024999999441206455,0.0,0.0,0.0,0.0024999999441206455,0.0,0.0,0.0,0.0024999999441206455,0.0,0.0,0.0,0.019999999552965164,0.0,0.0,0.0,0.019999999552965164,0.0,0.0,0.0,0.019999999552965164,0.15023615956306458,0.02992752008140087,9.63067626953125,0.03999999910593033,0.0,0.0,0.0,0.03999999910593033,0.0,0.0,0.0,0.03999999910593033
1779682952162950795,883462,1779682952171974361,imu_link,0.006569173187017441,-0.0019954575691372156,0.623680830001831,0.7816434502601624,0.0024999999441206455,0.0,0.0,0.0,0.0024999999441206455,0.0,0.0,0.0,0.0024999999441206455,0.0,0.0,0.0,0.019999999552965164,0.0,0.0,0.0,0.019999999552965164,0.0,0.0,0.0,0.019999999552965164,0.14365209639072418,0.031124621629714966,9.692925453186035,0.03999999910593033,0.0,0.0,0.0,0.03999999910593033,0.0,0.0,0.0,0.03999999910593033
1779682952169517736,883463,1779682952174974361,imu_link,0.006275127176195383,-0.0026153335347771645,0.6236847639083862,0.7816409468650818,0.0024999999441206455,0.0,0.0,0.0,0.0024999999441206455,0.0,0.0,0.0,0.0024999999441206455,0.0,0.0,0.0,0.019999999552965164,0.0,0.0,0.0,0.019999999552965164,0.0,0.0,0.0,0.019999999552965164,0.14724339544773102,-0.004788403399288654,9.586383819580078,0.03999999910593033,0.0,0.0,0.0,0.03999999910593033,0.0,0.0,0.0,0.03999999910593033
1779682952177665821,883464,1779682952179974361,imu_link,0.006275127176195383,-0.0026153335347771645,0.6236847639083862,0.7816409468650818,0.0024999999441206455,0.0,0.0,0.0,0.0024999999441206455,0.0,0.0,0.0,0.0024999999441206455,0.0,0.0,0.0,0.019999999552965164,0.0,0.0,0.0,0.019999999552965164,0.0,0.0,0.0,0.019999999552965164,0.14724339544773102,-0.004788403399288654,9.586383819580078,0.03999999910593033,0.0,0.0,0.0,0.03999999910593033,0.0,0.0,0.0,0.03999999910593033
1779682952180935664,883465,1779682952184974361,imu_link,0.006189080886542797,-0.0033567300997674465,0.6236875057220459,0.7816365361213684,0.0024999999441206455,0.0,0.0,0.0,0.0024999999441206455,0.0,0.0,0.0,0.0024999999441206455,0.0,0.0,0.0,0.019999999552965164,0.0,0.0,0.0,0.019999999552965164,0.0,0.0,0.0,0.019999999552965164,0.1604115068912506,0.01735796220600605,9.645041465759277,0.03999999910593033,0.0,0.0,0.0,0.03999999910593033,0.0,0.0,0.0,0.03999999910593033
1779682952186560213,883466,1779682952189974361,imu_link,0.00609804131090641,-0.004089865833520889,0.6236899495124817,0.7816318273544312,0.0024999999441206455,0.0,0.0,0.0,0.0024999999441206455,0.0,0.0,0.0,0.0024999999441206455,0.0,0.0,0.0,0.019999999552965164,0.0,0.0,0.0,0.019999999552965164,0.0,0.0,0.0,0.019999999552965164,0.17836801707744598,-0.0017956512747332454,9.634267807006836,0.03999999910593033,0.0,0.0,0.0,0.03999999910593033,0.0,0.0,0.0,0.03999999910593033
1779682952193418336,883467,1779682952194974361,imu_link,0.00609804131090641,-0.004089865833520889,0.6236899495124817,0.7816318273544312,0.0024999999441206455,0.0,0.0,0.0,0.0024999999441206455,0.0,0.0,0.0,0.0024999999441206455,0.0,0.0,0.0,0.019999999552965164,0.0,0.0,0.0,0.019999999552965164,0.0,0.0,0.0,0.019999999552965164,0.17836801707744598,-0.0017956512747332454,9.634267807006836,0.03999999910593033,0.0,0.0,0.0,0.03999999910593033,0.0,0.0,0.0,0.03999999910593033
1779682952198740828,883468,1779682952199974361,imu_link,0.006138643249869347,-0.004831997212022543,0.623691201210022,0.7816263437271118,0.0024999999441206455,0.0,0.0,0.0,0.0024999999441206455,0.0,0.0,0.0,0.0024999999441206455,0.0,0.0,0.0,0.019999999552965164,0.0,0.0,0.0,0.019999999552965164,0.0,0.0,0.0,0.019999999552965164,0.16400282084941864,0.021547814831137657,9.604938507080078,0.03999999910593033,0.0,0.0,0.0,0.03999999910593033,0.0,0.0,0.0,0.03999999910593033
1779682952242644815,883469,1779682952255974361,imu_link,0.0019581830129027367,-0.008380808867514133,0.6237199902534485,0.7815951108932495,0.0024999999441206455,0.0,0.0,0.0,0.0024999999441206455,0.0,0.0,0.0,0.0024999999441206455,0.0,0.0,0.0,0.019999999552965164,0.0,0.0,0.0,0.019999999552965164,0.0,0.0,0.0,0.019999999552965164,0.14844051003456116,-0.008379706181585789,9.671976089477539,0.03999999910593033,0.0,0.0,0.0,0.03999999910593033,0.0,0.0,0.0,0.03999999910593033
1779682952249233654,883470,1779682952258974361,imu_link,0.0026265359483659267,-0.008223255164921284,0.6237151026725769,0.7815985083580017,0.0024999999441206455,0.0,0.0,0.0,0.0024999999441206455,0.0,0.0,0.0,0.0024999999441206455,0.0,0.0,0.0,0.019999999552965164,0.0,0.0,0.0,0.019999999552965164,0.0,0.0,0.0,0.019999999552965164,0.18914192914962769,0.011971008032560349,9.633668899536133,0.03999999910593033,0.0,0.0,0.0,0.03999999910593033,0.0,0.0,0.0,0.03999999910593033
1779682952255607072,883471,1779682952263974361,imu_link,0.0026265359483659267,-0.008223255164921284,0.6237151026725769,0.7815985083580017,0.0024999999441206455,0.0,0.0,0.0,0.0024999999441206455,0.0,0.0,0.0,0.0024999999441206455,0.0,0.0,0.0,0.019999999552965164,0.0,0.0,0.0,0.019999999552965164,0.0,0.0,0.0,0.019999999552965164,0.18914192914962769,0.011971008032560349,9.633668899536133,0.03999999910593033,0.0,0.0,0.0,0.03999999910593033,0.0,0.0,0.0,0.03999999910593033
1779682952261039981,883472,1779682952268974361,imu_link,0.0032974376808851957,-0.007897126488387585,0.623710572719574,0.7816030979156494,0.0024999999441206455,0.0,0.0,0.0,0.0024999999441206455,0.0,0.0,0.0,0.0024999999441206455,0.0,0.0,0.0,0.019999999552965164,0.0,0.0,0.0,0.019999999552965164,0.0,0.0,0.0,0.019999999552965164,0.1693897694349289,0.0011971008498221636,9.655217170715332,0.03999999910593033,0.0,0.0,0.0,0.03999999910593033,0.0,0.0,0.0,0.03999999910593033
1779682952266705926,883473,1779682952273974361,imu_link,0.0037456294521689415,-0.007309109438210726,0.6237080097198486,0.7816087007522583,0.0024999999441206455,0.0,0.0,0.0,0.0024999999441206455,0.0,0.0,0.0,0.0024999999441206455,0.0,0.0,0.0,0.019999999552965164,0.0,0.0,0.0,0.019999999552965164,0.0,0.0,0.0,0.019999999552965164,0.1454477459192276,0.0077811554074287415,9.646238327026367,0.03999999910593033,0.0,0.0,0.0,0.03999999910593033,0.0,0.0,0.0,0.03999999910593033
1779682952272152901,883474,1779682952278974361,imu_link,0.0037456294521689415,-0.007309109438210726,0.6237080097198486,0.7816087007522583,0.0024999999441206455,0.0,0.0,0.0,0.0024999999441206455,0.0,0.0,0.0,0.0024999999441206455,0.0,0.0,0.0,0.019999999552965164,0.0,0.0,0.0,0.019999999552965164,0.0,0.0,0.0,0.019999999552965164,0.1454477459192276,0.0077811554074287415,9.646238327026367,0.03999999910593033,0.0,0.0,0.0,0.03999999910593033,0.0,0.0,0.0,0.03999999910593033
1779682952277774528,883475,1779682952283974361,imu_link,0.004301097244024277,-0.00681509030982852,0.623704195022583,0.7816134691238403,0.0024999999441206455,0.0,0.0,0.0,0.0024999999441206455,0.0,0.0,0.0,0.0024999999441206455,0.0,0.0,0.0,0.019999999552965164,0.0,0.0,0.0,0.019999999552965164,0.0,0.0,0.0,0.019999999552965164,0.15263035893440247,0.020350713282823563,9.652223587036133,0.03999999910593033,0.0,0.0,0.0,0.03999999910593033,0.0,0.0,0.0,0.03999999910593033
1779682952303467649,883476,1779682952292974361,imu_link,0.005375965964049101,-0.006342560984194279,0.6236955523490906,0.7816175818443298,0.0024999999441206455,0.0,0.0,0.0,0.0024999999441206455,0.0,0.0,0.0,0.0024999999441206455,0.0,0.0,0.0,0.019999999552965164,0.0,0.0,0.0,0.019999999552965164,0.0,0.0,0.0,0.019999999552965164,0.1604115068912506,0.005386953707784414,9.639654159545898,0.03999999910593033,0.0,0.0,0.0,0.03999999910593033,0.0,0.0,0.0,0.03999999910593033
1779682952310325585,883477,1779682952297974361,imu_link,0.005375965964049101,-0.006342560984194279,0.6236955523490906,0.7816175818443298,0.0024999999441206455,0.0,0.0,0.0,0.0024999999441206455,0.0,0.0,0.0,0.0024999999441206455,0.0,0.0,0.0,0.019999999552965164,0.0,0.0,0.0,0.019999999552965164,0.0,0.0,0.0,0.019999999552965164,0.1604115068912506,0.005386953707784414,9.639654159545898,0.03999999910593033,0.0,0.0,0.0,0.03999999910593033,0.0,0.0,0.0,0.03999999910593033
1779682952316511598,883478,1779682952302974361,imu_link,0.005762767978012562,-0.0069807530380785465,0.6236922740936279,0.7816119194030762,0.0024999999441206455,0.0,0.0,0.0,0.0024999999441206455,0.0,0.0,0.0,0.0024999999441206455,0.0,0.0,0.0,0.019999999552965164,0.0,0.0,0.0,0.019999999552965164,0.0,0.0,0.0,0.019999999552965164,0.18914192914962769,0.0011971008498221636,9.710882186889648,0.03999999910593033,0.0,0.0,0.0,0.03999999910593033,0.0,0.0,0.0,0.03999999910593033
1779682952321819521,883479,1779682952307974361,imu_link,0.005225026980042458,-0.006474775727838278,0.6236969828605652,0.7816164493560791,0.0024999999441206455,0.0,0.0,0.0,0.0024999999441206455,0.0,0.0,0.0,0.0024999999441206455,0.0,0.0,0.0,0.019999999552965164,0.0,0.0,0.0,0.019999999552965164,0.0,0.0,0.0,0.019999999552965164,0.15442600846290588,0.0,9.64923095703125,0.03999999910593033,0.0,0.0,0.0,0.03999999910593033,0.0,0.0,0.0,0.03999999910593033
1779682952344859188,883480,1779682952348974361,imu_link,0.00893839355558157,-0.006177927833050489,0.6236617565155029,0.7816133499145508,0.0024999999441206455,0.0,0.0,0.0,0.0024999999441206455,0.0,0.0,0.0,0.0024999999441206455,0.0,0.0,0.0,0.019999999552965164,0.0,0.0,0.0,0.019999999552965164,0.0,0.0,0.0,0.019999999552965164,0.17717091739177704,0.02753331884741783,9.564835548400879,0.03999999910593033,0.0,0.0,0.0,0.03999999910593033,0.0,0.0,0.0,0.03999999910593033
1779682952351585641,883481,1779682952351974361,imu_link,0.008255686610937119,-0.00618646340444684,0.6236686706542969,0.7816151976585388,0.0024999999441206455,0.0,0.0,0.0,0.0024999999441206455,0.0,0.0,0.0,0.0024999999441206455,0.0,0.0,0.0,0.019999999552965164,0.0,0.0,0.0,0.019999999552965164,0.0,0.0,0.0,0.019999999552965164,0.1562216579914093,0.002394201699644327,9.686341285705566,0.03999999910593033,0.0,0.0,0.0,0.03999999910593033,0.0,0.0,0.0,0.03999999910593033
1779682952357364979,883482,1779682952356974361,imu_link,0.008255686610937119,-0.00618646340444684,0.6236686706542969,0.7816151976585388,0.0024999999441206455,0.0,0.0,0.0,0.0024999999441206455,0.0,0.0,0.0,0.0024999999441206455,0.0,0.0,0.0,0.019999999552965164,0.0,0.0,0.0,0.019999999552965164,0.0,0.0,0.0,0.019999999552965164,0.1562216579914093,0.002394201699644327,9.686341285705566,0.03999999910593033,0.0,0.0,0.0,0.03999999910593033,0.0,0.0,0.0,0.03999999910593033
1779682952363228398,883483,1779682952361974361,imu_link,0.007527841255068779,-0.0060349744744598866,0.6236753463745117,0.7816183567047119,0.0024999999441206455,0.0,0.0,0.0,0.0024999999441206455,0.0,0.0,0.0,0.0024999999441206455,0.0,0.0,0.0,0.019999999552965164,0.0,0.0,0.0,0.019999999552965164,0.0,0.0,0.0,0.019999999552965164,0.15981295704841614,0.02274491637945175,9.654618263244629,0.03999999910593033,0.0,0.0,0.0,0.03999999910593033,0.0,0.0,0.0,0.03999999910593033
1779682952369629922,883484,1779682952366974361,imu_link,0.006905591115355492,-0.0056395879946649075,0.6236802339553833,0.7816232442855835,0.0024999999441206455,0.0,0.0,0.0,0.0024999999441206455,0.0,0.0,0.0,0.0024999999441206455,0.0,0.0,0.0,0.019999999552965164,0.0,0.0,0.0,0.019999999552965164,0.0,0.0,0.0,0.019999999552965164,0.14425064623355865,0.028131868690252304,9.61331844329834,0.03999999910593033,0.0,0.0,0.0,0.03999999910593033,0.0,0.0,0.0,0.03999999910593033
1779682952375345952,883485,1779682952373974361,imu_link,0.006173909641802311,-0.005538035649806261,0.6236862540245056,0.7816252708435059,0.0024999999441206455,0.0,0.0,0.0,0.0024999999441206455,0.0,0.0,0.0,0.0024999999441206455,0.0,0.0,0.0,0.019999999552965164,0.0,0.0,0.0,0.019999999552965164,0.0,0.0,0.0,0.019999999552965164,0.15442600846290588,0.023942016065120697,9.59177017211914,0.03999999910593033,0.0,0.0,0.0,0.03999999910593033,0.0,0.0,0.0,0.03999999910593033
1779682952398639569,883486,1779682952382974361,imu_link,0.006173909641802311,-0.005538035649806261,0.6236862540245056,0.7816252708435059,0.0024999999441206455,0.0,0.0,0.0,0.0024999999441206455,0.0,0.0,0.0,0.0024999999441206455,0.0,0.0,0.0,0.019999999552965164,0.0,0.0,0.0,0.019999999552965164,0.0,0.0,0.0,0.019999999552965164,0.15442600846290588,0.023942016065120697,9.59177017211914,0.03999999910593033,0.0,0.0,0.0,0.03999999910593033,0.0,0.0,0.0,0.03999999910593033
1779682952423479903,883487,1779682952434974361,imu_link,0.0037669483572244644,-0.010702516883611679,0.623702883720398,0.7815735936164856,0.0024999999441206455,0.0,0.0,0.0,0.0024999999441206455,0.0,0.0,0.0,0.0024999999441206455,0.0,0.0,0.0,0.019999999552965164,0.0,0.0,0.0,0.019999999552965164,0.0,0.0,0.0,0.019999999552965164,0.17836801707744598,-0.014365210197865963,9.660603523254395,0.03999999910593033,0.0,0.0,0.0,0.03999999910593033,0.0,0.0,0.0,0.03999999910593033
1779682952430857445,883488,1779682952437974361,imu_link,0.0038716327399015427,-0.010027356445789337,0.6237041354179382,0.7815811038017273,0.0024999999441206455,0.0,0.0,0.0,0.0024999999441206455,0.0,0.0,0.0,0.0024999999441206455,0.0,0.0,0.0,0.019999999552965164,0.0,0.0,0.0,0.019999999552965164,0.0,0.0,0.0,0.019999999552965164,0.1430535465478897,-0.002992752008140087,9.62947940826416,0.03999999910593033,0.0,0.0,0.0,0.03999999910593033,0.0,0.0,0.0,0.03999999910593033
1779682952436791169,883489,1779682952442974361,imu_link,0.0038716327399015427,-0.010027356445789337,0.6237041354179382,0.7815811038017273,0.0024999999441206455,0.0,0.0,0.0,0.0024999999441206455,0.0,0.0,0.0,0.0024999999441206455,0.0,0.0,0.0,0.019999999552965164,0.0,0.0,0.0,0.019999999552965164,0.0,0.0,0.0,0.019999999552965164,0.1430535465478897,-0.002992752008140087,9.62947940826416,0.03999999910593033,0.0,0.0,0.0,0.03999999910593033,0.0,0.0,0.0,0.03999999910593033
1779682952443213069,883490,1779682952447974361,imu_link,0.004203452728688717,-0.009358562529087067,0.6237027049064636,0.7815887928009033,0.0024999999441206455,0.0,0.0,0.0,0.0024999999441206455,0.0,0.0,0.0,0.0024999999441206455,0.0,0.0,0.0,0.019999999552965164,0.0,0.0,0.0,0.019999999552965164,0.0,0.0,0.0,0.019999999552965164,0.16579847037792206,0.004788403399288654,9.605537414550781,0.03999999910593033,0.0,0.0,0.0,0.03999999910593033,0.0,0.0,0.0,0.03999999910593033
1779682952448597655,883491,1779682952452974361,imu_link,0.004661746323108673,-0.008776755072176456,0.6236994862556458,0.7815955281257629,0.0024999999441206455,0.0,0.0,0.0,0.0024999999441206455,0.0,0.0,0.0,0.0024999999441206455,0.0,0.0,0.0,0.019999999552965164,0.0,0.0,0.0,0.019999999552965164,0.0,0.0,0.0,0.019999999552965164,0.17836801707744598,0.009576806798577309,9.668384552001953,0.03999999910593033,0.0,0.0,0.0,0.03999999910593033,0.0,0.0,0.0,0.03999999910593033
1779682952454288709,883492,1779682952457974361,imu_link,0.004661746323108673,-0.008776755072176456,0.6236994862556458,0.7815955281257629,0.0024999999441206455,0.0,0.0,0.0,0.0024999999441206455,0.0,0.0,0.0,0.0024999999441206455,0.0,0.0,0.0,0.019999999552965164,0.0,0.0,0.0,0.019999999552965164,0.0,0.0,0.0,0.019999999552965164,0.17836801707744598,0.009576806798577309,9.668384552001953,0.03999999910593033,0.0,0.0,0.0,0.03999999910593033,0.0,0.0,0.0,0.03999999910593033
1779682952460871659,883493,1779682952462974361,imu_link,0.005103032570332289,-0.008178201504051685,0.6236960887908936,0.7816019654273987,0.0024999999441206455,0.0,0.0,0.0,0.0024999999441206455,0.0,0.0,0.0,0.0024999999441206455,0.0,0.0,0.0,0.019999999552965164,0.0,0.0,0.0,0.019999999552965164,0.0,0.0,0.0,0.019999999552965164,0.17298106849193573,0.020949264988303185,9.624691009521484,0.03999999910593033,0.0,0.0,0.0,0.03999999910593033,0.0,0.0,0.0,0.03999999910593033
1779682952486093733,883494,1779682952471974361,imu_link,0.005062364973127842,-0.00700779864564538,0.6236973404884338,0.7816125750541687,0.0024999999441206455,0.0,0.0,0.0,0.0024999999441206455,0.0,0.0,0.0,0.0024999999441206455,0.0,0.0,0.0,0.019999999552965164,0.0,0.0,0.0,0.019999999552965164,0.0,0.0,0.0,0.019999999552965164,0.1562216579914093,0.0,9.668983459472656,0.03999999910593033,0.0,0.0,0.0,0.03999999910593033,0.0,0.0,0.0,0.03999999910593033
1779682952491629436,883495,1779682952476974361,imu_link,0.005062364973127842,-0.00700779864564538,0.6236973404884338,0.7816125750541687,0.0024999999441206455,0.0,0.0,0.0,0.0024999999441206455,0.0,0.0,0.0,0.0024999999441206455,0.0,0.0,0.0,0.019999999552965164,0.0,0.0,0.0,0.019999999552965164,0.0,0.0,0.0,0.019999999552965164,0.1562216579914093,0.0,9.668983459472656,0.03999999910593033,0.0,0.0,0.0,0.03999999910593033,0.0,0.0,0.0,0.03999999910593033
1779682952515783534,883496,1779682952520974361,imu_link,0.008653496392071247,-0.004271861165761948,0.6236611604690552,0.781629741191864,0.0024999999441206455,0.0,0.0,0.0,0.0024999999441206455,0.0,0.0,0.0,0.0024999999441206455,0.0,0.0,0.0,0.019999999552965164,0.0,0.0,0.0,0.019999999552965164,0.0,0.0,0.0,0.019999999552965164,0.16639702022075653,0.011971008032560349,9.607931137084961,0.03999999910593033,0.0,0.0,0.0,0.03999999910593033,0.0,0.0,0.0,0.03999999910593033
